condition,contrast,is_synchronous,response,rt,detection_prob,participant_id,trial_num
exteroceptive,0.5,True,True,0.45205917207184576,0.6219550080057412,1,1
exteroceptive,0.45,False,True,0.6556690089315085,0.46697603072412397,1,1
exteroceptive,0.405,False,False,0.6124709712962032,0.41106038635277453,1,1
exteroceptive,0.44550000000000006,True,True,0.6809975972785168,0.4836719016861202,1,1
exteroceptive,0.4009500000000001,False,False,0.5133976937471981,0.3582437726785236,1,1
exteroceptive,0.44104500000000013,True,False,0.3881502335528505,0.6292373717695812,1,1
exteroceptive,0.4851495000000002,False,True,0.490269641007144,0.5363664246057862,1,1
exteroceptive,0.4366345500000002,True,True,0.43253268194004135,0.2862547267855342,1,1
exteroceptive,0.39297109500000016,True,False,0.5248482246377132,0.28736443698909026,1,1
exteroceptive,0.4322682045000002,True,True,0.3799441706690882,0.3328954030976118,1,1
exteroceptive,0.38904138405000016,False,False,0.3839062244812046,0.4781985711876147,1,1
exteroceptive,0.4279455224550002,False,False,0.4099091720351962,0.4664365169166341,1,1
exteroceptive,0.4707400747005003,True,False,0.5667188587733143,0.40839470745318496,1,1
exteroceptive,0.5178140821705504,True,False,0.4605239910791016,0.587047802642903,1,1
exteroceptive,0.5695954903876055,False,True,0.4246951521202721,0.6888331495723335,1,1
exteroceptive,0.5126359413488449,True,True,0.3562870520168802,0.558966232785896,1,1
exteroceptive,0.4613723472139605,False,True,0.5186506664463604,0.5180541299174509,1,1
exteroceptive,0.41523511249256445,False,False,0.4476904190969588,0.457464763104125,1,1
exteroceptive,0.4567586237418209,False,False,0.46603750883080064,0.4104098818623561,1,1
exteroceptive,0.502434486116003,True,False,0.6171464131717472,0.38602998308038294,1,1
exteroceptive,0.5526779347276034,True,True,0.29213506558331614,0.49155257435215965,1,1
exteroceptive,0.49741014125484306,True,True,0.6270299938439458,0.5988940462674122,1,1
exteroceptive,0.44766912712935875,False,True,0.5507925933996923,0.6809988798677816,1,1
exteroceptive,0.4029022144164229,True,True,0.6302633158523674,0.42748462930842834,1,1
exteroceptive,0.3626119929747806,True,False,0.5933794702684143,0.5131519561734421,1,1
exteroceptive,0.39887319227225865,False,True,0.5849038627444134,0.42991100148658484,1,1
exteroceptive,0.35898587304503277,True,True,0.4151188664526223,0.4604577402290815,1,1
exteroceptive,0.3230872857405295,True,True,0.6514161801414059,0.6215303977041804,1,1
exteroceptive,0.29077855716647655,False,False,0.6542057078652749,0.30236698069279655,1,1
exteroceptive,0.3198564128831242,False,False,0.25987766430917975,0.46802653546256207,1,1
exteroceptive,0.35184205417143666,True,False,0.4833948990340904,0.45040124346576876,1,1
exteroceptive,0.38702625958858033,False,False,0.46172452113562246,0.254157526199171,1,1
exteroceptive,0.42572888554743843,False,False,0.4845912761435613,0.5299096717591789,1,1
exteroceptive,0.4683017741021823,True,True,0.33238219484553977,0.3745571710938878,1,1
exteroceptive,0.4214715966919641,True,False,0.5286020786939304,0.3701664470663914,1,1
exteroceptive,0.46361875636116057,True,False,0.30771175530293926,0.6721841770165218,1,1
exteroceptive,0.5099806319972766,True,True,0.40133853983357304,0.6175202132986353,1,1
exteroceptive,0.45898256879754895,False,False,0.5490997038549802,0.40796816111042566,1,1
exteroceptive,0.5048808256773039,True,True,0.44036069067579875,0.5377969101371719,1,1
exteroceptive,0.4543927431095735,False,True,0.5634100912575571,0.4722774994894102,1,1
exteroceptive,0.40895346879861616,False,False,0.432352837397465,0.41912936168554954,1,1
exteroceptive,0.4498488156784778,False,True,0.5741790366752703,0.47905283683686484,1,1
exteroceptive,0.40486393411063004,False,True,0.6251513576653063,0.5465426545848562,1,1
exteroceptive,0.36437754069956707,False,True,0.42858191850763033,0.5462193630337009,1,1
exteroceptive,0.3279397866296104,False,False,0.2576139152139993,0.3561652040742821,1,1
exteroceptive,0.36073376529257145,True,True,0.29197791399458395,0.461925901833923,1,1
exteroceptive,0.3246603887633143,False,False,0.5791982560600846,0.5098950859269336,1,1
exteroceptive,0.3571264276396458,False,False,0.4403107803315358,0.3254854827686576,1,1
exteroceptive,0.39283907040361044,False,False,0.5329642074301245,0.4881428573345368,1,1
exteroceptive,0.4321229774439715,True,True,0.7605660362104288,0.47364804372831837,1,1
interoceptive,0.5,True,False,0.35644856908308276,0.4396822940751246,1,1
interoceptive,0.55,False,False,0.3311791069323504,0.5806627014028227,1,1
interoceptive,0.6050000000000001,False,True,0.581069869970392,0.7449061558318554,1,1
interoceptive,0.5445000000000001,False,True,0.7127973055378138,0.4631837762585057,1,1
interoceptive,0.4900500000000001,True,True,0.48930846576091935,0.5900891990365887,1,1
interoceptive,0.4410450000000001,False,False,0.3602857681451068,0.4912627797556012,1,1
interoceptive,0.4851495000000001,True,True,0.49677742511647077,0.490709304289648,1,1
interoceptive,0.4366345500000001,True,False,0.4481059707302203,0.3704550299309878,1,1
interoceptive,0.4802980050000002,True,False,0.3780110039144002,0.4585970126865072,1,1
interoceptive,0.5283278055000002,False,True,0.4838146208962742,0.4072743783971381,1,1
interoceptive,0.47549502495000023,True,True,0.5654850820178106,0.5446837058910736,1,1
interoceptive,0.4279455224550002,True,False,0.49154670354261143,0.5782219879933164,1,1
interoceptive,0.4707400747005003,True,True,0.41353527961249925,0.5915279301643421,1,1
interoceptive,0.42366606723045025,False,False,0.43529272351245385,0.3594949093361394,1,1
interoceptive,0.4660326739534953,True,False,0.5349352176774999,0.3411820577023581,1,1
interoceptive,0.5126359413488448,True,True,0.46477178227867233,0.6639779044934364,1,1
interoceptive,0.46137234721396037,False,True,0.38207026805378075,0.3667163206944224,1,1
interoceptive,0.41523511249256434,False,False,0.46895505951573757,0.38823049798419756,1,1
interoceptive,0.4567586237418208,False,False,0.5117290905175628,0.5215661381150123,1,1
interoceptive,0.5024344861160029,True,True,0.47306751124477125,0.4396250769939532,1,1
interoceptive,0.45219103750440265,False,False,0.6171628424094375,0.4444286225254668,1,1
interoceptive,0.49741014125484295,False,False,0.5637827993970596,0.4740460987730813,1,1
interoceptive,0.5471511553803273,False,True,0.7480355376699982,0.8130521830288786,1,1
interoceptive,0.4924360398422946,True,False,0.5366965718055937,0.4446606523349698,1,1
interoceptive,0.5416796438265241,True,False,0.46250692399648846,0.40718650073985746,1,1
interoceptive,0.5958476082091766,False,False,0.371317648729104,0.6109771713900826,1,1
interoceptive,0.6554323690300943,True,False,0.5763965864698204,0.7547940361477531,1,1
interoceptive,0.7209756059331037,False,True,0.6333620279472869,0.7941205456880981,1,1
interoceptive,0.6488780453397933,False,False,0.6383884946890884,0.7196976961083015,1,1
interoceptive,0.7137658498737727,True,True,0.5100008929279409,0.5587685059957986,1,1
interoceptive,0.6423892648863955,True,False,0.5198106177128473,0.5478392537382006,1,1
interoceptive,0.7066281913750351,True,True,0.44072278308287755,0.7201829242334414,1,1
interoceptive,0.6359653722375316,False,True,0.43873014950055117,0.6079854679654298,1,1
interoceptive,0.5723688350137784,True,True,0.5672492658297302,0.5535025234064905,1,1
interoceptive,0.5151319515124007,True,False,0.5641208238125649,0.5236171379041862,1,1
interoceptive,0.5666451466636407,True,False,0.5385081692231892,0.47013683209161206,1,1
interoceptive,0.6233096613300049,False,True,0.5235063080081497,0.7544705438060885,1,1
interoceptive,0.5609786951970044,False,True,0.44506475987389554,0.6573965357480498,1,1
interoceptive,0.504880825677304,False,True,0.6787682474438937,0.5795714176510708,1,1
interoceptive,0.45439274310957356,False,True,0.43807259516911873,0.46387071996720153,1,1
interoceptive,0.4089534687986162,False,False,0.7059461643464771,0.3344698397334361,1,1
interoceptive,0.4498488156784779,False,False,0.5256178415765339,0.399511606729033,1,1
interoceptive,0.49483369724632575,True,True,0.47876912730908455,0.4912726078630619,1,1
interoceptive,0.4453503275216932,False,False,0.5426771799909926,0.6049023992182587,1,1
interoceptive,0.48988536027386254,True,True,0.4194172122905145,0.40018215474456414,1,1
interoceptive,0.4408968242464763,False,True,0.567382797920315,0.5037030687979629,1,1
interoceptive,0.3968071418218287,False,True,0.42926360379271156,0.27629907760595174,1,1
interoceptive,0.3571264276396458,False,False,0.4852362397570266,0.3093748971433118,1,1
interoceptive,0.39283907040361044,True,False,0.5120572486154831,0.3227283420351939,1,1
interoceptive,0.4321229774439715,True,True,0.5344002916120912,0.3468597719786702,1,1
control,0.5,False,False,0.5120386215832861,0.4248181424240852,1,1
control,0.55,False,True,0.41438442408251563,0.42548207497694857,1,1
control,0.49500000000000005,True,False,0.5322508567295043,0.43906653465384743,1,1
control,0.5445000000000001,True,False,0.36160486336833975,0.4150521698946105,1,1
control,0.5989500000000002,True,False,0.5603215967661604,0.5687294543993109,1,1
control,0.6588450000000002,False,True,0.43293376944754336,0.6288194131516573,1,1
control,0.5929605000000002,True,False,0.5786124798635184,0.5194912546009331,1,1
control,0.6522565500000003,False,False,0.5626649731547868,0.9000157571200934,1,1
control,0.7174822050000004,True,False,0.4866908675866588,0.6456946569497967,1,1
control,0.7892304255000004,True,True,0.5658134700254982,0.7935730912630762,1,1
control,0.7103073829500004,False,False,0.43303106954810744,0.6908535552404953,1,1
control,0.7813381212450005,False,False,0.6858236186542749,0.5826678096936238,1,1
control,0.8594719333695006,True,False,0.4049755633225203,0.647125074158953,1,1
control,0.9454191267064507,False,False,0.4571680662288387,0.7224913194230866,1,1
control,1.0,False,True,0.4112628285698425,0.9149208413949922,1,1
control,0.9,False,True,0.5236613035829061,0.762560046402314,1,1
control,0.81,True,True,0.4299063333233337,0.7388191342638473,1,1
control,0.7290000000000001,False,True,0.4836176755563905,0.7356768455549735,1,1
control,0.6561000000000001,False,False,0.4812116663250731,0.6277164863214696,1,1
control,0.7217100000000002,False,False,0.4850052391791244,0.7242430355429765,1,1
control,0.7938810000000003,False,False,0.557217517154552,0.8667183053264735,1,1
control,0.8732691000000004,False,False,0.4273330574331842,0.7290368532910567,1,1
control,0.9605960100000005,False,True,0.4860298372093208,0.682536394675027,1,1
control,0.8645364090000005,False,False,0.47720138197517514,0.7417219677111488,1,1
control,0.9509900499000006,True,True,0.40889268139862306,0.5446562103597442,1,1
control,0.8558910449100006,True,True,0.5462494620895904,0.8427842788014815,1,1
control,0.7703019404190006,False,True,0.4956958289473491,0.8137904298945156,1,1
control,0.6932717463771005,False,False,0.49638881348126346,0.6149304462524562,1,1
control,0.7625989210148106,False,False,0.4529533935420173,0.6503551583731801,1,1
control,0.8388588131162917,True,False,0.44685606975225534,0.6683820170701558,1,1
control,0.922744694427921,False,True,0.40461855484989706,0.7861363093061562,1,1
control,0.8304702249851289,False,True,0.59875357187384,0.7650894254889978,1,1
control,0.747423202486616,False,True,0.429181317897973,0.5217664377813844,1,1
control,0.6726808822379544,True,True,0.4487556585637527,0.6864540754893559,1,1
control,0.605412794014159,True,True,0.4197323657599239,0.5224269753839067,1,1
control,0.5448715146127432,False,False,0.40639632602743514,0.6198113626400108,1,1
control,0.5993586660740176,True,False,0.6458471485196209,0.6454870814151497,1,1
control,0.6592945326814194,False,True,0.578223339625968,0.4780434282362459,1,1
control,0.5933650794132774,False,False,0.4062500775612914,0.6549644770160923,1,1
control,0.6527015873546053,True,True,0.41027889488558344,0.541087435190199,1,1
control,0.5874314286191448,False,False,0.4853146836738348,0.7079227887682116,1,1
control,0.6461745714810593,False,False,0.4262651340038315,0.715461193320084,1,1
control,0.7107920286291652,False,True,0.3467717879660499,0.5668430467067216,1,1
control,0.6397128257662488,False,False,0.583454804747147,0.3921251938204571,1,1
control,0.7036841083428738,True,True,0.4703819583194091,0.6820618721692383,1,1
control,0.6333156975085864,True,True,0.4190083039388464,0.5336022774838513,1,1
control,0.5699841277577278,True,False,0.46123002327394846,0.5368469516128115,1,1
control,0.6269825405335006,False,True,0.40244154993986214,0.4119468455790418,1,1
control,0.5642842864801505,False,False,0.6088880486990341,0.4907680116550185,1,1
control,0.6207127151281656,False,False,0.4125797646067987,0.3105419285196104,1,1
exteroceptive,0.3889106796995743,False,False,0.4355380024139452,0.22065169879673627,2,1
exteroceptive,0.4278017476695318,True,True,0.38411597589032653,0.5174337574768384,2,1
exteroceptive,0.3850215729025786,True,True,0.38947470319378463,0.5046338567069036,2,1
exteroceptive,0.34651941561232075,True,True,0.520243782123928,0.4435189279807098,2,1
exteroceptive,0.31186747405108867,False,True,0.49371244124130786,0.44095455274481615,2,1
exteroceptive,0.2806807266459798,True,False,0.4061264959875011,0.44187897153747563,2,1
exteroceptive,0.3087487993105778,True,False,0.46582695669059077,0.3420796552241331,2,1
exteroceptive,0.3396236792416356,True,False,0.5949171016304415,0.30135180835020764,2,1
exteroceptive,0.3735860471657992,False,False,0.5475145959934524,0.47660792929468815,2,1
exteroceptive,0.4109446518823791,True,False,0.45949844956488867,0.13408236530538542,2,1
exteroceptive,0.45203911707061706,False,False,0.41062253520442543,0.5295765910267508,2,1
exteroceptive,0.4972430287776788,True,True,0.621581897700082,0.5573791256417951,2,1
exteroceptive,0.44751872589991093,True,False,0.5196160031096282,0.3062504498075646,2,1
exteroceptive,0.49227059848990207,True,True,0.4098876219191403,0.49617586585020707,2,1
exteroceptive,0.4430435386409119,False,False,0.6035538197222633,0.3526543256785009,2,1
exteroceptive,0.4873478925050031,True,True,0.7496811766242477,0.4692675690328689,2,1
exteroceptive,0.4386131032545028,True,False,0.5887800809166498,0.5061094712202266,2,1
exteroceptive,0.48247441357995313,True,False,0.5337992542923254,0.5795547682926643,2,1
exteroceptive,0.5307218549379484,True,True,0.35540221946323347,0.6010239834630184,2,1
exteroceptive,0.4776496694441536,True,True,0.5339526283532096,0.32111138169351533,2,1
exteroceptive,0.42988470249973826,False,False,0.5132260495967723,0.3235065154258078,2,1
exteroceptive,0.47287317274971213,False,True,0.5670884419680984,0.4222901106874561,2,1
exteroceptive,0.4255858554747409,False,False,0.2794672018790756,0.4122093219285336,2,1
exteroceptive,0.46814444102221503,False,True,0.41094852648113805,0.4536138056348699,2,1
exteroceptive,0.4213299969199935,True,False,0.23658832002730829,0.4415913928979937,2,1
exteroceptive,0.4634629966119929,False,True,0.3342909350220127,0.5766688093434749,2,1
exteroceptive,0.4171166969507936,False,False,0.5520280461849919,0.36188075986281465,2,1
exteroceptive,0.458828366645873,False,False,0.41965338268267416,0.4645200072761383,2,1
exteroceptive,0.5047112033104604,True,True,0.6452214317115808,0.5422421600625487,2,1
exteroceptive,0.4542400829794144,False,False,0.4828104623942344,0.3551885404756804,2,1
exteroceptive,0.49966409127735584,False,False,0.3787787145314219,0.40913070837543425,2,1
exteroceptive,0.5496305004050914,False,True,0.29045591454622194,0.5408595988997571,2,1
exteroceptive,0.4946674503645823,True,False,0.44476247354423604,0.4685737589846982,2,1
exteroceptive,0.5441341954010406,False,False,0.4955752827639053,0.42415079920386695,2,1
exteroceptive,0.5985476149411447,True,True,0.46730544130195933,0.7332701767197133,2,1
exteroceptive,0.5386928534470302,False,True,0.5264708437982517,0.6426302172178449,2,1
exteroceptive,0.4848235681023272,False,False,0.54035560035847,0.41757307596133364,2,1
exteroceptive,0.5333059249125599,False,True,0.6342357250936653,0.5836050801491618,2,1
exteroceptive,0.4799753324213039,False,True,0.5414405228550232,0.46072140046798027,2,1
exteroceptive,0.4319777991791735,True,True,0.3827304196270351,0.49926279981616484,2,1
exteroceptive,0.38878001926125616,False,True,0.6029471728952505,0.5754368460139953,2,1
exteroceptive,0.34990201733513054,False,False,0.5978761010643252,0.32791215860375483,2,1
exteroceptive,0.3848922190686436,True,False,0.4937042574219733,0.410703422202356,2,1
exteroceptive,0.423381440975508,False,False,0.5229785315725962,0.5878296638553909,2,1
exteroceptive,0.46571958507305883,False,True,0.4106880871275061,0.4005101019453402,2,1
exteroceptive,0.41914762656575294,False,True,0.606552196194633,0.28211800760466743,2,1
exteroceptive,0.37723286390917765,True,False,0.552428107807488,0.46690281172908554,2,1
exteroceptive,0.41495615030009547,False,True,0.2570934095958403,0.5559005572886742,2,1
exteroceptive,0.37346053527008594,True,False,0.47497828941127923,0.6070658704391667,2,1
exteroceptive,0.4108065887970946,True,False,0.5758893619819412,0.33692299319990215,2,1
interoceptive,0.3889106796995743,True,False,0.41390046688178533,0.35185065137413696,2,1
interoceptive,0.4278017476695318,False,False,0.47656990560554974,0.3295567337499817,2,1
interoceptive,0.470581922436485,True,True,0.521462104196011,0.4820867367217822,2,1
interoceptive,0.4235237301928365,False,True,0.3753180567427953,0.38539784785019693,2,1
interoceptive,0.3811713571735529,True,False,0.44732425509807144,0.4883280528874673,2,1
interoceptive,0.4192884928909082,True,False,0.3748017632872389,0.44784467147488516,2,1
interoceptive,0.46121734217999905,True,True,0.45982814572291264,0.4627233383959006,2,1
interoceptive,0.4150956079619991,False,True,0.4403516770658932,0.35844668214938197,2,1
interoceptive,0.37358604716579924,True,False,0.5403357888345103,0.41681245131924516,2,1
interoceptive,0.4109446518823792,False,False,0.5491951002364238,0.40638403479385327,2,1
interoceptive,0.45203911707061717,True,False,0.6241411421515648,0.28702208795282597,2,1
interoceptive,0.49724302877767895,True,False,0.6365570525584066,0.6654839201759613,2,1
interoceptive,0.5469673316554469,False,True,0.379000102209873,0.6268265655460721,2,1
interoceptive,0.4922705984899022,True,True,0.42920765787688786,0.38018336736436636,2,1
interoceptive,0.44304353864091195,False,False,0.46217506247276274,0.4732236746001889,2,1
interoceptive,0.4873478925050032,True,False,0.34632280645609825,0.66346981912685,2,1
interoceptive,0.5360826817555036,False,True,0.4937038311179656,0.5923615981878904,2,1
interoceptive,0.4824744135799532,False,True,0.4350004953453552,0.5531563011379305,2,1
interoceptive,0.4342269722219579,False,False,0.5140272615798164,0.39221570033382364,2,1
interoceptive,0.4776496694441537,True,True,0.45948459749098547,0.481356890894358,2,1
interoceptive,0.42988470249973837,True,True,0.5402370165005199,0.4421663199250797,2,1
interoceptive,0.38689623224976455,False,False,0.4400573906150385,0.12263280391718123,2,1
interoceptive,0.42558585547474104,True,False,0.6045128432552744,0.4610271810235699,2,1
interoceptive,0.4681444410222152,False,False,0.3025008040587619,0.5395505722673563,2,1
interoceptive,0.5149588851244368,True,True,0.5420638712308206,0.684862305737784,2,1
interoceptive,0.4634629966119931,False,False,0.4380770532161124,0.457806775303462,2,1
interoceptive,0.5098092962731924,True,True,0.42596119035865715,0.4950833575486107,2,1
interoceptive,0.4588283666458732,True,True,0.5341112917601127,0.3116236394521063,2,1
interoceptive,0.41294552998128586,False,True,0.4771416962304021,0.44192018361539515,2,1
interoceptive,0.3716509769831573,False,True,0.542774536989872,0.31274572398693534,2,1
interoceptive,0.3344858792848416,False,False,0.5297401109823878,0.057184821138424935,2,1
interoceptive,0.3679344672133258,False,False,0.5328185622022477,0.17170603390165418,2,1
interoceptive,0.4047279139346584,True,False,0.48112506905398594,0.2777437312006105,2,1
interoceptive,0.4452007053281243,False,True,0.5141806817466049,0.5623320651927697,2,1
interoceptive,0.40068063479531185,True,False,0.44212762704515135,0.40957854982889,2,1
interoceptive,0.4407486982748431,False,False,0.5622499311256017,0.4653117391819367,2,1
interoceptive,0.48482356810232746,False,False,0.5210040625209502,0.5785921235312503,2,1
interoceptive,0.5333059249125602,True,False,0.46710814951632595,0.49932908053825453,2,1
interoceptive,0.5866365174038163,False,False,0.5418155754502711,0.5731443902732736,2,1
interoceptive,0.645300169144198,True,False,0.41907442376707155,0.5770938299232091,2,1
interoceptive,0.7098301860586178,False,True,0.6790032232799732,0.7717921403085695,2,1
interoceptive,0.638847167452756,False,True,0.45357438992578764,0.6401271392546776,2,1
interoceptive,0.5749624507074804,False,True,0.43323540166058805,0.6905517699870894,2,1
interoceptive,0.5174662056367324,False,False,0.5212661447636402,0.5342135261649811,2,1
interoceptive,0.5692128262004057,True,False,0.5559867131600126,0.5750950571797335,2,1
interoceptive,0.6261341088204463,True,False,0.3128398826500104,0.6634902590821227,2,1
interoceptive,0.6887475197024909,False,True,0.4947458559776788,0.7141685682052149,2,1
interoceptive,0.6198727677322419,True,False,0.6428568962891045,0.5894576274377634,2,1
interoceptive,0.6818600445054661,False,True,0.5105376946404057,0.7813630577426834,2,1
interoceptive,0.6136740400549195,False,False,0.5265730736493751,0.6761917281020824,2,1
control,0.6827839866409823,True,True,0.3166341230262177,0.5127451818101164,2,1
control,0.614505587976884,True,False,0.4747931196565278,0.5188986803151916,2,1
control,0.6759561467745725,True,True,0.5619590704084247,0.5468909997026677,2,1
control,0.6083605320971153,True,True,0.6538737080531518,0.7652287142303807,2,1
control,0.5475244788874037,True,False,0.6558846876215992,0.5889103014285395,2,1
control,0.6022769267761442,False,True,0.4887260961594309,0.6026488597429132,2,1
control,0.5420492340985298,False,False,0.6735629849024176,0.2610707963912668,2,1
control,0.5962541575083828,False,True,0.6337196898741368,0.5762640283364096,2,1
control,0.5366287417575446,True,True,0.40331712132726094,0.6427836317833281,2,1
control,0.48296586758179016,False,False,0.5639123239437414,0.23365499528786787,2,1
control,0.5312624543399692,False,False,0.5137854758845216,0.5401052653735692,2,1
control,0.5843886997739662,True,False,0.6143219858801221,0.5198853018417223,2,1
control,0.6428275697513629,False,False,0.5177000920983618,0.6494196372605839,2,1
control,0.7071103267264992,True,False,0.3379152974547728,0.639152090916413,2,1
control,0.7778213593991492,True,True,0.4439310418706132,0.5204458339137645,2,1
control,0.7000392234592343,True,True,0.5057395591118943,0.36136346723635504,2,1
control,0.6300353011133109,False,True,0.5722212698122926,0.6826209958398693,2,1
control,0.5670317710019798,False,False,0.4131522349659512,0.5410368827637848,2,1
control,0.6237349481021778,True,True,0.3932244763894334,0.4442186488586105,2,1
control,0.56136145329196,False,True,0.6366141023727584,0.5019771141382757,2,1
control,0.505225307962764,True,False,0.5324326309837102,0.49868689159906954,2,1
control,0.5557478387590404,True,False,0.5053665775338583,0.5237575455664935,2,1
control,0.6113226226349445,False,True,0.4672387683058562,0.585985711205298,2,1
control,0.5501903603714501,False,False,0.5069718235610485,0.6274663678963629,2,1
control,0.6052093964085952,True,False,0.5515949662898685,0.6104450166723172,2,1
control,0.6657303360494548,False,False,0.5307154516248632,0.6366756771401814,2,1
control,0.7323033696544002,True,True,0.4750330041811484,0.6913782207079786,2,1
control,0.6590730326889602,False,True,0.49644443380928804,0.5697786762348436,2,1
control,0.5931657294200642,True,True,0.5233099591992817,0.6692171791293638,2,1
control,0.5338491564780578,False,True,0.5594531838727599,0.41632245627944486,2,1
control,0.48046424083025197,True,False,0.5742291023261367,0.3826588610698447,2,1
control,0.5285106649132773,False,True,0.3575568268627104,0.6035985442332832,2,1
control,0.47565959842194955,True,False,0.49990181200175804,0.4636236085337213,2,1
control,0.5232255582641445,False,False,0.49023884024493386,0.40060669934795934,2,1
control,0.5755481140905591,True,True,0.3850785740339768,0.7449309938961944,2,1
control,0.5179933026815031,True,True,0.5869279127312501,0.6463219179679494,2,1
control,0.4661939724133528,False,False,0.5819076132784624,0.5420237989659877,2,1
control,0.5128133696546882,False,False,0.42879534598631647,0.5573658870344753,2,1
control,0.564094706620157,True,False,0.636581977562744,0.6893513022614434,2,1
control,0.6205041772821728,False,False,0.3759955205517235,0.5163936183119346,2,1
control,0.6825545950103901,True,False,0.504351755315821,0.4495150384552631,2,1
control,0.7508100545114291,True,False,0.45043772963262774,0.6931490616371493,2,1
control,0.8258910599625721,False,True,0.36070807490910284,0.7331504145575755,2,1
control,0.7433019539663148,True,False,0.5195288537729502,0.5495028914924596,2,1
control,0.8176321493629464,True,True,0.47681812156548153,0.561412300473341,2,1
control,0.7358689344266518,False,True,0.6036299449861448,0.5296389716782944,2,1
control,0.6622820409839867,False,False,0.5618534323121108,0.3619105427997932,2,1
control,0.7285102450823854,True,False,0.608395819996902,0.46137356175277944,2,1
control,0.8013612695906239,True,True,0.4322088385104884,0.7538178907366595,2,1
control,0.7212251426315616,False,True,0.38599029655053907,0.6863952435150817,2,1
control,0.6491026283684054,False,True,0.5279401076088523,0.6002383508748442,3,1
control,0.5841923655315648,True,True,0.6715248844245391,0.6225591058315633,3,1
control,0.5257731289784083,True,True,0.5019785550609029,0.565235427628925,3,1
control,0.4731958160805675,True,False,0.3554348718044383,0.43383783482684535,3,1
control,0.5205153976886243,True,True,0.5304156585558879,0.4648233929831899,3,1
control,0.4684638579197619,False,True,0.5276439538351068,0.43842891879541923,3,1
control,0.4216174721277857,True,False,0.4745632748662029,0.5286435759025955,3,1
control,0.4637792193405643,True,True,0.7184108256239041,0.4554252012549479,3,1
control,0.4174012974065079,True,False,0.6309188498664619,0.5073750985910164,3,1
control,0.4591414271471587,True,True,0.6497318971122188,0.5274500019819841,3,1
control,0.41322728443244283,True,False,0.45749744652136787,0.4983727965327442,3,1
control,0.45455001287568714,True,True,0.6470586238517471,0.5953709566685628,3,1
control,0.40909501158811845,True,True,0.3634573304965045,0.39190004240377535,3,1
control,0.36818551042930664,True,False,0.5165300209747398,0.5299515767037637,3,1
control,0.40500406147223733,False,False,0.548558993837041,0.4212901957245545,3,1
control,0.4455044676194611,False,True,0.5718265430197841,0.5665927357151583,3,1
control,0.400954020857515,True,False,0.5139536491117914,0.465551283624322,3,1
control,0.44104942294326654,False,True,0.5602991644152612,0.3593243721495806,3,1
control,0.3969444806489399,False,False,0.3094158020744356,0.32363725659940457,3,1
control,0.4366389287138339,True,True,0.6098791847889317,0.4565597275572284,3,1
control,0.3929750358424505,True,True,0.47379148398471865,0.297589403059671,3,1
control,0.3536775322582055,False,True,0.35980968976442673,0.28150652433096157,3,1
control,0.31830977903238494,True,True,0.4435072036417963,0.5676719814127905,3,1
control,0.2864788011291465,True,False,0.3962719293015005,0.4044485146639047,3,1
control,0.31512668124206117,False,True,0.5238279771030757,0.46020876775694125,3,1
control,0.28361401311785506,False,False,0.5378876633561938,0.3458276010702911,3,1
control,0.3119754144296406,True,False,0.5135214800832627,0.3545565017665864,3,1
control,0.3431729558726047,True,False,0.7377158414803672,0.523493003159853,3,1
control,0.3774902514598652,True,True,0.332349860185125,0.7481456854886618,3,1
control,0.3397412263138787,False,False,0.461931580621254,0.4810465744665975,3,1
control,0.3737153489452666,True,False,0.504572514351751,0.41029005806972,3,1
control,0.4110868838397933,False,False,0.3586561316784388,0.3346189492234229,3,1
control,0.45219557222377266,False,True,0.6729473214841375,0.4195979612960094,3,1
control,0.4069760150013954,False,False,0.5931672266111699,0.6056838967336029,3,1
control,0.447673616501535,False,False,0.7546300676832882,0.24137098127535048,3,1
control,0.4924409781516885,False,True,0.6179569530794196,0.5319618852719022,3,1
control,0.44319688033651966,False,False,0.526828983665317,0.4236295544491345,3,1
control,0.48751656837017165,True,False,0.5177925080843976,0.47794397828146523,3,1
control,0.5362682252071889,False,True,0.5182653000099141,0.5350084807274338,3,1
control,0.48264140268647,False,True,0.5106302531300893,0.3977005970650672,3,1
control,0.434377262417823,False,False,0.49070818458999055,0.3696715122676002,3,1
control,0.4778149886596053,False,True,0.35562762444216844,0.34505581631957505,3,1
control,0.4300334897936448,True,True,0.5024913394415403,0.6734162845079985,3,1
control,0.38703014081428033,True,False,0.42886033192090095,0.5327969305446698,3,1
control,0.4257331548957084,False,True,0.5168050694856232,0.6706445800081016,3,1
control,0.38315983940613757,True,False,0.5468016123442462,0.4019038238724678,3,1
control,0.4214758233467514,True,False,0.4721868135624735,0.46397447059791624,3,1
control,0.46362340568142657,True,True,0.45482457277804866,0.4626451487622074,3,1
control,0.4172610651132839,False,True,0.6926269169378534,0.3512070487201764,3,1
control,0.3755349586019555,True,True,0.6366242338362478,0.649482841280473,3,1
interoceptive,0.6750414440604116,True,False,0.5918143999894397,0.6587829714504216,3,1
interoceptive,0.7425455884664528,False,False,0.5779935091797704,0.8646566452726132,3,1
interoceptive,0.8168001473130981,True,True,0.5412628604422571,0.797650812559229,3,1
interoceptive,0.7351201325817883,True,True,0.6414356936476793,0.6324021452733097,3,1
interoceptive,0.6616081193236095,False,True,0.33878372814628066,0.6607974621962613,3,1
interoceptive,0.5954473073912486,True,False,0.5946070066701812,0.6485832656158519,3,1
interoceptive,0.6549920381303735,False,True,0.7212855427260716,0.825940221978647,3,1
interoceptive,0.5894928343173362,True,False,0.754020816867135,0.4234181801884377,3,1
interoceptive,0.6484421177490699,True,True,0.22605953139762108,0.7142276246590229,3,1
interoceptive,0.583597905974163,False,True,0.6946427186868042,0.692813511739509,3,1
interoceptive,0.5252381153767467,True,False,0.467511929968641,0.3747068077849307,3,1
interoceptive,0.5777619269144214,True,False,0.5602050058852637,0.6395920819599985,3,1
interoceptive,0.6355381196058636,True,False,0.48377037926370264,0.7046326692021746,3,1
interoceptive,0.69909193156645,True,True,0.6304115235414541,0.8730083272340297,3,1
interoceptive,0.629182738409805,True,False,0.42971353252050537,0.6561079666751474,3,1
interoceptive,0.6921010122507856,True,True,0.3960761136992111,0.7051407772052737,3,1
interoceptive,0.622890911025707,True,False,0.5398481784458333,0.5489657292789032,3,1
interoceptive,0.6851800021282778,True,False,0.43349186728778527,0.6712856680910406,3,1
interoceptive,0.7536980023411056,False,True,0.6803977844991616,0.8644544392337317,3,1
interoceptive,0.6783282021069951,True,True,0.412552899029415,0.848659925800472,3,1
interoceptive,0.6104953818962956,False,False,0.6921946143960169,0.6298248057093426,3,1
interoceptive,0.6715449200859253,False,False,0.6448116223881706,0.633505331017824,3,1
interoceptive,0.7386994120945178,False,False,0.36800420844621173,0.8713703077611495,3,1
interoceptive,0.8125693533039697,True,False,0.6771413822758778,0.7378954983400452,3,1
interoceptive,0.8938262886343668,False,True,0.511740806500901,1.0,3,1
interoceptive,0.8044436597709301,False,True,0.39628814281021263,0.7726292946712064,3,1
interoceptive,0.7239992937938371,False,True,0.5404142916881318,0.7495363499413559,3,1
interoceptive,0.6515993644144534,True,True,0.4657831839265219,0.7211850920848525,3,1
interoceptive,0.5864394279730081,False,False,0.666587920705018,0.7018533837036587,3,1
interoceptive,0.645083370770309,True,False,0.5108074940653446,0.6923533777163929,3,1
interoceptive,0.7095917078473399,True,False,0.41587037557009043,0.6916547087792688,3,1
interoceptive,0.780550878632074,True,True,0.5411154638046267,0.8289177204216188,3,1
interoceptive,0.7024957907688666,False,True,0.47495775868354506,0.8330982114027465,3,1
interoceptive,0.6322462116919799,False,True,0.5823090252130187,0.9701488519295101,3,1
interoceptive,0.5690215905227819,True,False,0.6609604188466885,0.6424303350171148,3,1
interoceptive,0.6259237495750601,True,True,0.5767628218366653,0.6198038602868345,3,1
interoceptive,0.5633313746175541,True,True,0.5906337347198616,0.7783658842098278,3,1
interoceptive,0.5069982371557987,False,True,0.5154223822988822,0.5227506061114017,3,1
interoceptive,0.4562984134402189,True,True,0.34911940931068264,0.4672104075707575,3,1
interoceptive,0.410668572096197,True,True,0.5543985981139145,0.4575673352419459,3,1
interoceptive,0.36960171488657734,False,True,0.4045814206299636,0.40624743036414174,3,1
interoceptive,0.3326415433979196,False,True,0.5080560259773711,0.10377126711100815,3,1
interoceptive,0.29937738905812766,True,True,0.48205250272959005,0.2363008920475963,3,1
interoceptive,0.2694396501523149,False,False,0.37123342534899173,0.16363417079911824,3,1
interoceptive,0.2963836151675464,False,True,0.5082608450568272,0.30202788691620636,3,1
interoceptive,0.26674525365079177,False,True,0.31654912576415356,0.34366383733591743,3,1
interoceptive,0.2400707282857126,False,False,0.5386088901982637,0.23667288266564418,3,1
interoceptive,0.26407780111428386,True,False,0.3644921587987219,0.1581668012329458,3,1
interoceptive,0.2904855812257123,True,True,0.6541692796176668,0.3863051313502707,3,1
interoceptive,0.26143702310314104,False,False,0.27485938473968663,0.12784520434061147,3,1
exteroceptive,0.4518872476768041,False,False,0.4885906037215202,0.4824804357184121,3,1
exteroceptive,0.49707597244448454,False,True,0.5718471804169865,0.4390268895690732,3,1
exteroceptive,0.4473683752000361,True,True,0.4095289452303012,0.5175609924720491,3,1
exteroceptive,0.40263153768003246,False,True,0.3510691488256212,0.21480885070259015,3,1
exteroceptive,0.36236838391202925,False,False,0.39686399675358597,0.513557669482551,3,1
exteroceptive,0.3986052223032322,True,True,0.36969900840362135,0.33555498117262894,3,1
exteroceptive,0.358744700072909,True,False,0.33919712911381217,0.4195346124448739,3,1
exteroceptive,0.3946191700801999,False,False,0.6127079403827057,0.32214055237463557,3,1
exteroceptive,0.43408108708821996,False,False,0.5553177143766796,0.40971719326531975,3,1
exteroceptive,0.477489195797042,True,False,0.7085533583937548,0.5966839927360261,3,1
exteroceptive,0.5252381153767463,False,True,0.5273351159159991,0.5576052542461591,3,1
exteroceptive,0.47271430383907165,True,False,0.6306156853347544,0.41593914119999076,3,1
exteroceptive,0.5199857342229789,False,False,0.4423549159056576,0.5865647657217535,3,1
exteroceptive,0.5719843076452769,False,False,0.3977216944975595,0.5779182603039554,3,1
exteroceptive,0.6291827384098045,True,False,0.5291846506471721,0.534669511695455,3,1
exteroceptive,0.692101012250785,True,False,0.43850582805425037,0.6380758631900421,3,1
exteroceptive,0.7613111134758636,False,False,0.5465817177188126,0.6649589535660554,3,1
exteroceptive,0.83744222482345,True,False,0.36870167370338813,0.7738882455094933,3,1
exteroceptive,0.921186447305795,False,True,0.5772176115498963,0.9770607946226963,3,1
exteroceptive,0.8290678025752155,True,True,0.4975606140167216,0.732522773262033,3,1
exteroceptive,0.746161022317694,False,True,0.37482272891817614,0.8651681324016829,3,1
exteroceptive,0.6715449200859246,False,False,0.6377075137487731,0.6217368959841986,3,1
exteroceptive,0.7386994120945171,True,True,0.5057014922359554,0.6244100818708833,3,1
exteroceptive,0.6648294708850654,True,False,0.5424865277243679,0.7747030361245412,3,1
exteroceptive,0.7313124179735719,False,True,0.6431881096771067,0.6901041390803848,3,1
exteroceptive,0.6581811761762147,True,False,0.45100882371042117,0.4285302189690857,3,1
exteroceptive,0.7239992937938363,True,True,0.5600051860390657,0.6042331407155318,3,1
exteroceptive,0.6515993644144527,False,False,0.4033618491804893,0.7590786356324783,3,1
exteroceptive,0.716759300855898,True,False,0.49521580040655255,0.7376720501122641,3,1
exteroceptive,0.7884352309414878,False,False,0.505750250408712,0.6256584235465217,3,1
exteroceptive,0.8672787540356367,False,True,0.5510088684859177,0.7984774522272712,3,1
exteroceptive,0.7805508786320731,False,False,0.4179452965667629,0.583158564771434,3,1
exteroceptive,0.8586059664952804,False,True,0.5098293634215918,0.7113042556368666,3,1
exteroceptive,0.7727453698457524,True,True,0.45139461217885546,0.7307981722381224,3,1
exteroceptive,0.6954708328611772,False,True,0.5489613512538487,0.5646559833982695,3,1
exteroceptive,0.6259237495750595,False,True,0.6820039913600433,0.7592701650418127,3,1
exteroceptive,0.5633313746175536,False,False,0.4266230380396167,0.6168097858118,3,1
exteroceptive,0.619664512079309,False,False,0.4773746549176909,0.5383237944214285,3,1
exteroceptive,0.6816309632872399,False,True,0.5082431711442931,0.6031220389021927,3,1
exteroceptive,0.613467866958516,False,False,0.6309854854493988,0.7053849782510481,3,1
exteroceptive,0.6748146536543677,True,False,0.3575887939151957,0.5873627426007582,3,1
exteroceptive,0.7422961190198045,False,True,0.4682476515713871,0.5916418548754216,3,1
exteroceptive,0.6680665071178241,False,False,0.32938986707774354,0.6300790289141942,3,1
exteroceptive,0.7348731578296066,False,True,0.5974597873931512,0.6296436988108811,3,1
exteroceptive,0.661385842046646,False,True,0.5163657639141132,0.7274202913904709,3,1
exteroceptive,0.5952472578419814,False,False,0.6156767624684014,0.4107698216835656,3,1
exteroceptive,0.6547719836261796,True,True,0.5613693632013171,0.7331290113636197,3,1
exteroceptive,0.5892947852635617,False,False,0.615502552856465,0.4162622352203019,3,1
exteroceptive,0.6482242637899179,True,True,0.4334250995077273,0.6093836097003681,3,1
exteroceptive,0.5834018374109261,True,False,0.3863330301526253,0.7465595250434588,3,1
exteroceptive,0.6417420211520187,False,False,0.4979730479030859,0.6799703968796009,4,1
exteroceptive,0.7059162232672207,True,True,0.45931619667014933,0.8648931628218584,4,1
exteroceptive,0.6353246009404987,False,True,0.5212399594757706,0.6673147967508746,4,1
exteroceptive,0.5717921408464488,False,True,0.2707265622526924,0.6010414110319104,4,1
exteroceptive,0.5146129267618039,True,True,0.3120155210584673,0.632338789610738,4,1
exteroceptive,0.46315163408562354,False,True,0.49968008188251084,0.5049175783500949,4,1
exteroceptive,0.4168364706770612,False,False,0.6061021619881681,0.2811669028771505,4,1
exteroceptive,0.45852011774476736,False,False,0.4969076996312568,0.3325106291191545,4,1
exteroceptive,0.5043721295192442,False,True,0.37380498961924746,0.6856052051379204,4,1
exteroceptive,0.45393491656731977,False,False,0.3580564530584499,0.562382529316071,4,1
exteroceptive,0.4993284082240518,False,False,0.5979331451275953,0.5750747147447564,4,1
exteroceptive,0.549261249046457,True,False,0.6318585715641641,0.4451500699524717,4,1
exteroceptive,0.6041873739511028,True,True,0.5385223375445295,0.6020473610007874,4,1
exteroceptive,0.5437686365559925,False,True,0.5060823163147713,0.5341186314838015,4,1
exteroceptive,0.48939177290039326,True,True,0.34243894067685987,0.4643970558363508,4,1
exteroceptive,0.44045259561035394,False,True,0.5323237064173265,0.5039304585043778,4,1
exteroceptive,0.39640733604931855,True,False,0.5483304700721753,0.36006908440915064,4,1
exteroceptive,0.4360480696542504,True,False,0.4297473940170401,0.3709448058995609,4,1
exteroceptive,0.4796528766196755,False,True,0.5782249384132194,0.5140813287686261,4,1
exteroceptive,0.4316875889577079,False,False,0.5838021867199958,0.40895779159474743,4,1
exteroceptive,0.47485634785347874,False,False,0.4384590789984017,0.6287865364103361,4,1
exteroceptive,0.5223419826388267,True,False,0.5192611776821584,0.4331532195784934,4,1
exteroceptive,0.5745761809027095,False,True,0.5724078008680195,0.5370167414543984,4,1
exteroceptive,0.5171185628124385,False,True,0.4700211745349403,0.5005278548685164,4,1
exteroceptive,0.46540670653119465,True,False,0.4445999574447544,0.45004433525899074,4,1
exteroceptive,0.5119473771843142,True,True,0.43683464851897075,0.5141906565016595,4,1
exteroceptive,0.46075263946588274,False,False,0.2775429467683218,0.4991882379301393,4,1
exteroceptive,0.5068279034124711,False,False,0.4846870739876413,0.35734165533841833,4,1
exteroceptive,0.5575106937537182,True,True,0.3980978692551229,0.6769972001586806,4,1
exteroceptive,0.5017596243783464,False,False,0.537405909522019,0.413624458479237,4,1
exteroceptive,0.5519355868161812,False,False,0.434202159002368,0.5884860984087462,4,1
exteroceptive,0.6071291454977993,True,False,0.4631692812507418,0.4829140967498275,4,1
exteroceptive,0.6678420600475793,False,False,0.42376749485692594,0.5297151254781609,4,1
exteroceptive,0.7346262660523373,False,True,0.6872913946348463,0.6229407894232146,4,1
exteroceptive,0.6611636394471035,True,False,0.5651606145854149,0.6186513005095868,4,1
exteroceptive,0.727280003391814,False,True,0.49476576968092534,0.6310050500138316,4,1
exteroceptive,0.6545520030526326,False,False,0.48120174781444924,0.5784189892585171,4,1
exteroceptive,0.7200072033578959,True,False,0.5113625745622611,0.4632252510719349,4,1
exteroceptive,0.7920079236936856,True,False,0.2801773673678298,0.8088959152201549,4,1
exteroceptive,0.8712087160630542,True,False,0.7273830728004924,0.8584890659028401,4,1
exteroceptive,0.9583295876693596,False,True,0.4027582653677593,0.7037794052593869,4,1
exteroceptive,0.8624966289024236,True,True,0.44890496307897704,0.8271732484089839,4,1
exteroceptive,0.7762469660121812,False,False,0.5294210596638773,0.8730083394982417,4,1
exteroceptive,0.8538716626133994,True,False,0.6616112974082795,0.8004806375376358,4,1
exteroceptive,0.9392588288747394,False,True,0.6138054080409934,0.8281019168959161,4,1
exteroceptive,0.8453329459872655,False,True,0.5950117445639644,0.6834351254624029,4,1
exteroceptive,0.760799651388539,False,True,0.5464841190767449,0.7483869572608013,4,1
exteroceptive,0.6847196862496852,True,True,0.4853148636808212,0.6209377008906098,4,1
exteroceptive,0.6162477176247166,True,True,0.440719206238875,0.6146414328099774,4,1
exteroceptive,0.554622945862245,True,False,0.4979215612719537,0.5662485468840035,4,1
interoceptive,0.2875807254134552,True,False,0.5590398105940795,0.0845170247407635,4,1
interoceptive,0.31633879795480074,False,False,0.4972253067189631,0.265249291063578,4,1
interoceptive,0.34797267775028085,True,True,0.5611274395748203,0.42604452113410113,4,1
interoceptive,0.3131754099752528,False,False,0.5049179332288949,0.22256457097044768,4,1
interoceptive,0.3444929509727781,True,False,0.5283680076531725,0.474930508782453,4,1
interoceptive,0.37894224607005594,False,True,0.42311052035982616,0.35024008153935987,4,1
interoceptive,0.34104802146305035,False,True,0.5699454933410186,0.2521798131907917,4,1
interoceptive,0.30694321931674534,False,True,0.591203237555332,0.3935848677075736,4,1
interoceptive,0.2762488973850708,True,True,0.5647640367832658,0.19107779824182153,4,1
interoceptive,0.24862400764656373,True,False,0.4981407614611956,0.09106556071839386,4,1
interoceptive,0.2734864084112201,True,False,0.43826892916400606,0.27830332241427425,4,1
interoceptive,0.30083504925234217,False,False,0.540151712901004,0.19495794447532577,4,1
interoceptive,0.33091855417757643,False,False,0.36319715813388054,0.3198369368028187,4,1
interoceptive,0.3640104095953341,False,False,0.3622227345022915,0.2295453181650604,4,1
interoceptive,0.40041145055486754,False,False,0.30087357234489,0.20361663455964107,4,1
interoceptive,0.4404525956103543,False,False,0.42528369108169795,0.41921079859369875,4,1
interoceptive,0.4844978551713898,True,False,0.4548544186922587,0.33174445280083875,4,1
interoceptive,0.5329476406885288,False,True,0.49964610674147103,0.7133054212005938,4,1
interoceptive,0.479652876619676,False,True,0.38487193354572463,0.47551036134216806,4,1
interoceptive,0.43168758895770837,False,True,0.6846747538830233,0.4539848838338685,4,1
interoceptive,0.38851883006193755,False,False,0.662797098081305,0.4956522725402578,4,1
interoceptive,0.42737071306813135,False,True,0.6690414393113167,0.5168910167401121,4,1
interoceptive,0.3846336417613182,True,True,0.4855261536427594,0.5111702974496155,4,1
interoceptive,0.34617027758518637,True,True,0.5731216499617354,0.38384851647487644,4,1
interoceptive,0.31155324982666777,True,False,0.5483362896452165,0.2015770603760912,4,1
interoceptive,0.3427085748093346,True,False,0.7112525917011626,0.22699097688163022,4,1
interoceptive,0.3769794322902681,True,False,0.5164201320371348,0.3043669005278652,4,1
interoceptive,0.41467737551929496,True,True,0.5788831318035972,0.2801460959156007,4,1
interoceptive,0.37320963796736545,False,False,0.39783545342987653,0.3984213253102049,4,1
interoceptive,0.410530601764102,True,True,0.5905552413965831,0.33854772944678735,4,1
interoceptive,0.3694775415876918,False,True,0.5961478918807421,0.44483767380318,4,1
interoceptive,0.33252978742892264,False,True,0.576745428800232,0.28061067463059425,4,1
interoceptive,0.2992768086860304,True,False,0.6251900503122949,0.333871029620015,4,1
interoceptive,0.3292044895546335,False,False,0.4762568213532469,0.41659456349926405,4,1
interoceptive,0.36212493851009686,True,True,0.6910078273740923,0.38772689324076365,4,1
interoceptive,0.3259124446590872,True,False,0.4025163656911988,0.30695571371218366,4,1
interoceptive,0.358503689124996,False,False,0.5366694888556377,0.2091931270642539,4,1
interoceptive,0.3943540580374956,False,True,0.5401609218331731,0.5336236098158839,4,1
interoceptive,0.3549186522337461,False,True,0.4444779186761453,0.4586107389463465,4,1
interoceptive,0.31942678701037147,True,False,0.42260950853711676,0.45761924336329873,4,1
interoceptive,0.35136946571140865,True,False,0.6157642518730163,0.2043599437768419,4,1
interoceptive,0.38650641228254956,False,True,0.6096262400483397,0.36777023420777,4,1
interoceptive,0.3478557710542946,False,False,0.6961815266346998,0.2169134864528673,4,1
interoceptive,0.3826413481597241,True,True,0.5934633139832339,0.4258348204700367,4,1
interoceptive,0.3443772133437517,True,False,0.474397491121653,0.24057597907870149,4,1
interoceptive,0.37881493467812694,True,False,0.5080878598278945,0.4801399233556731,4,1
interoceptive,0.41669642814593966,False,False,0.48746222012825724,0.34425689044277025,4,1
interoceptive,0.45836607096053367,True,False,0.484796936110036,0.36322986763009046,4,1
interoceptive,0.504202678056587,True,False,0.5799201039113133,0.5097880094023026,4,1
interoceptive,0.5546229458622458,True,True,0.42277412056615254,0.645518635067285,4,1
control,0.33798146274176,True,True,0.4972338893052135,0.5189102882976785,4,1
control,0.304183316467584,False,False,0.5230188974822271,0.5166017167553646,4,1
control,0.33460164811434245,False,False,0.5203550073963132,0.42314114733068275,4,1
control,0.3680618129257767,True,False,0.47515087659994215,0.2978279663902787,4,1
control,0.4048679942183544,False,True,0.4965176941920337,0.3298892815581572,4,1
control,0.364381194796519,False,False,0.5003489943852651,0.4346120048380206,4,1
control,0.4008193142761709,True,True,0.4208944458664515,0.4120129325495868,4,1
control,0.36073738284855383,True,False,0.5125120085384264,0.31824181395855733,4,1
control,0.3968111211334093,True,False,0.5732914557384657,0.4402574960514769,4,1
control,0.43649223324675024,True,False,0.2940444199117105,0.46814367110918864,4,1
control,0.4801414565714253,False,True,0.3900240535329484,0.3850340913713034,4,1
control,0.4321273109142828,True,False,0.412802843798043,0.4142768556440144,4,1
control,0.4753400420057111,True,False,0.5383163548850013,0.46810155406496284,4,1
control,0.5228740462062823,False,False,0.5682042699929066,0.4876327861944164,4,1
control,0.5751614508269106,True,False,0.49312051988651046,0.4695898149613222,4,1
control,0.6326775959096017,True,True,0.45900739857347445,0.6322570261737028,4,1
control,0.5694098363186415,True,True,0.3935875465449514,0.6192788777388576,4,1
control,0.5124688526867773,False,True,0.5632708345306912,0.7285160891446646,4,1
control,0.4612219674180996,False,True,0.4002430222504105,0.4866361473944673,4,1
control,0.41509977067628967,True,True,0.5687817811477117,0.39359285499027186,4,1
control,0.37358979360866074,True,False,0.5290587708859851,0.4127885778355629,4,1
control,0.41094877296952687,True,False,0.43496817430540446,0.4569721154121815,4,1
control,0.4520436502664796,True,False,0.47930109543805544,0.5092873439435154,4,1
control,0.49724801529312757,True,False,0.4803295723823502,0.671092354069736,4,1
control,0.5469728168224404,False,True,0.3051381996071747,0.4908371269774403,4,1
control,0.49227553514019634,True,True,0.4723658295130263,0.6252724470614397,4,1
control,0.4430479816261767,True,True,0.2644977120881675,0.5054676191938063,4,1
control,0.398743183463559,True,False,0.3656914522054465,0.5879605557189951,4,1
control,0.438617501809915,False,False,0.48362067480210835,0.5081758607867202,4,1
control,0.4824792519909065,False,False,0.39344660734562564,0.29058936897735665,4,1
control,0.5307271771899972,True,True,0.6274290542519003,0.5371497617087028,4,1
control,0.4776544594709975,False,False,0.4354567717821067,0.36541419798015207,4,1
control,0.5254199054180972,False,True,0.47246555762676,0.3485778751690417,4,1
control,0.47287791487628755,False,False,0.18561529587680603,0.5036885999758867,4,1
control,0.5201657063639163,True,True,0.6371662373606279,0.5880628860889143,4,1
control,0.4681491357275247,False,False,0.34785610617243734,0.49298711351507835,4,1
control,0.5149640493002772,False,True,0.5447981862195589,0.6797781369002833,4,1
control,0.46346764437024945,False,True,0.4007726010443584,0.4568095647597574,4,1
control,0.4171208799332245,False,False,0.49906726285953923,0.4766588285397163,4,1
control,0.458832967926547,True,True,0.6397692226164233,0.554776457982066,4,1
control,0.4129496711338923,False,False,0.48499161304651184,0.40521209006991976,4,1
control,0.45424463824728156,True,False,0.5645034014426067,0.3709292237012912,4,1
control,0.49966910207200976,True,False,0.42225179988277434,0.5255360960174418,4,1
control,0.5496360122792108,False,True,0.611887383719098,0.40741891260247015,4,1
control,0.49467241105128973,False,True,0.3450547408421035,0.4596409765358342,4,1
control,0.4452051699461608,False,True,0.43709633658334635,0.5714382283578294,4,1
control,0.4006846529515447,True,False,0.5467065882816075,0.38196327951981296,4,1
control,0.4407531182466992,False,False,0.5585510206175234,0.5251806171749148,4,1
control,0.48482843007136917,True,False,0.4975936963012255,0.5443956325601231,4,1
control,0.5333112730785061,True,True,0.38500183065050864,0.4586872259368393,4,1
control,0.4799801457706555,False,True,0.31571649440966876,0.7169968778019762,5,1
control,0.43198213119358997,True,True,0.4980082074735481,0.48479553185820007,5,1
control,0.38878391807423096,False,False,0.45030745465114436,0.30605457421495785,5,1
control,0.4276623098816541,True,False,0.3913087289962378,0.4376639167540002,5,1
control,0.47042854086981956,True,True,0.40314399652742433,0.41204527031377725,5,1
control,0.4233856867828376,True,True,0.3833722761163221,0.3999954223496187,5,1
control,0.3810471181045539,False,True,0.614435705279208,0.48103729724880545,5,1
control,0.3429424062940985,False,True,0.2985020644397639,0.4974292673610628,5,1
control,0.30864816566468867,True,True,0.5622689695377651,0.34788908258825774,5,1
control,0.27778334909821983,True,False,0.6624814188166648,0.3497932723503163,5,1
control,0.30556168400804185,False,False,0.531596976038125,0.48900974572373057,5,1
control,0.33611785240884606,False,False,0.5768973778866182,0.329030327325849,5,1
control,0.3697296376497307,True,True,0.6428744118268882,0.32509588470234585,5,1
control,0.33275667388475766,True,False,0.5763831151863973,0.4192596133079117,5,1
control,0.3660323412732335,False,False,0.5586466603201294,0.2867547335159925,5,1
control,0.40263557540055683,False,True,0.40000212966966286,0.5975798301666134,5,1
control,0.36237201786050116,True,True,0.5052379367966614,0.4230028492191484,5,1
control,0.32613481607445105,True,True,0.563137657714293,0.3070602074309304,5,1
control,0.29352133446700596,False,False,0.289437373047123,0.22518866166177237,5,1
control,0.3228734679137066,True,False,0.579517001388705,0.46639928989006324,5,1
control,0.35516081470507727,False,True,0.5767639767310031,0.4081693998609257,5,1
control,0.31964473323456954,False,True,0.3427118042191365,0.4979875033352258,5,1
control,0.2876802599111126,False,False,0.35781501174674224,0.4575554843794416,5,1
control,0.3164482859022239,True,True,0.520140148714165,0.5926174352550828,5,1
control,0.2848034573120015,False,True,0.6336216611034747,0.4334164908151975,5,1
control,0.2563231115808014,False,False,0.45258465858321956,0.15804853115848702,5,1
control,0.2819554227388816,True,False,0.537523167793525,0.3043330741492706,5,1
control,0.3101509650127698,True,True,0.6083265400006668,0.30424247042467367,5,1
control,0.2791358685114928,True,False,0.46297994083619826,0.3192183005490153,5,1
control,0.3070494553626421,True,False,0.4689684483409375,0.3911043756054234,5,1
control,0.33775440089890635,False,False,0.5644225270427877,0.44533332564907924,5,1
control,0.371529840988797,True,False,0.4794418564013619,0.46549702860257375,5,1
control,0.4086828250876767,True,True,0.4461429373348355,0.48268423161478957,5,1
control,0.36781454257890905,False,True,0.5429485201388784,0.49922972262807125,5,1
control,0.33103308832101813,False,True,0.550618540999606,0.336099367253867,5,1
control,0.2979297794889163,False,True,0.40211537947527853,0.4049572653331008,5,1
control,0.26813680154002467,False,True,0.3105467319145834,0.35099037447483566,5,1
control,0.24132312138602222,True,False,0.461074657105903,0.19988290128204117,5,1
control,0.2654554335246245,True,True,0.4897290615128687,0.489856529942413,5,1
control,0.23890989017216202,True,False,0.48379569976024467,0.37649007892064745,5,1
control,0.2628008791893782,False,False,0.3553179684968466,0.4272713266629824,5,1
control,0.28908096710831604,True,False,0.6094765952996339,0.3798597763385466,5,1
control,0.31798906381914765,True,True,0.6259594165029017,0.2056657750544405,5,1
control,0.2861901574372329,False,False,0.44262204611257033,0.4265815270043348,5,1
control,0.31480917318095625,False,False,0.487957595999585,0.33046760685786747,5,1
control,0.3462900904990519,False,False,0.48797095206857055,0.3799952048107073,5,1
control,0.38091909954895714,False,False,0.49808651646988295,0.4870555266445852,5,1
control,0.4190110095038529,True,False,0.48933526073704264,0.45201008574621443,5,1
control,0.46091211045423824,True,True,0.43635966448341884,0.49946322485279376,5,1
control,0.41482089940881445,False,False,0.4833783708391526,0.4523610311643733,5,1
interoceptive,0.4991606512760212,True,True,0.4175786172772646,0.567678075272033,5,1
interoceptive,0.4492445861484191,False,False,0.5699048329567761,0.40583167406162535,5,1
interoceptive,0.49416904476326107,True,True,0.295338392416723,0.6930580489235907,5,1
interoceptive,0.444752140286935,True,True,0.5393396515897881,0.3414350378794644,5,1
interoceptive,0.4002769262582415,False,False,0.5494553984216531,0.3779462372641902,5,1
interoceptive,0.4403046188840657,True,True,0.4979589421284215,0.4932101133354835,5,1
interoceptive,0.39627415699565915,False,True,0.5478562895335946,0.3919266804312008,5,1
interoceptive,0.35664674129609325,False,False,0.49971390230473,0.37599345583433347,5,1
interoceptive,0.3923114154257026,True,False,0.6015357020772285,0.24136747866051322,5,1
interoceptive,0.4315425569682729,True,False,0.3730210208780367,0.47623369364251794,5,1
interoceptive,0.4746968126651002,False,True,0.44058711445742915,0.6623348767419821,5,1
interoceptive,0.4272271313985902,True,False,0.4901461373429587,0.350816198154815,5,1
interoceptive,0.46994984453844924,False,False,0.5493389264735203,0.5261523601459221,5,1
interoceptive,0.5169448289922942,False,True,0.6194383889764696,0.6238698496803996,5,1
interoceptive,0.4652503460930648,False,True,0.6275597849704598,0.5608427185719724,5,1
interoceptive,0.41872531148375836,True,True,0.49508864590593016,0.42645187422537967,5,1
interoceptive,0.37685278033538255,False,True,0.44827888063812676,0.4400595234529102,5,1
interoceptive,0.3391675023018443,False,True,0.4545264734455338,0.39291316034283996,5,1
interoceptive,0.30525075207165986,False,True,0.3488060908356927,0.22065360534751158,5,1
interoceptive,0.2747256768644939,True,False,0.4862531096450555,0.31733716096490516,5,1
interoceptive,0.3021982445509433,False,True,0.6132799812172021,0.3670634519063358,5,1
interoceptive,0.271978420095849,True,False,0.5070711096339209,0.2796274132585439,5,1
interoceptive,0.2991762621054339,False,False,0.6108984069024227,0.17885328167710868,5,1
interoceptive,0.3290938883159773,False,True,0.45991507242079394,0.4215296729277372,5,1
interoceptive,0.2961844994843796,False,False,0.34907393099219647,0.4095871388474955,5,1
interoceptive,0.32580294943281757,True,True,0.5529677580567269,0.41083124069016974,5,1
interoceptive,0.29322265448953583,True,False,0.4209026743085983,0.3627359722839944,5,1
interoceptive,0.32254491993848944,False,False,0.3209548035946326,0.4024524733612283,5,1
interoceptive,0.35479941193233844,True,False,0.4911950467298389,0.3621615751504444,5,1
interoceptive,0.3902793531255723,True,False,0.3592530494678867,0.44438524171576804,5,1
interoceptive,0.4293072884381296,True,False,0.5826609832289948,0.4253692234478852,5,1
interoceptive,0.4722380172819426,False,False,0.6515018082161748,0.2949640645235937,5,1
interoceptive,0.5194618190101369,True,True,0.5970272620024578,0.40963484768848757,5,1
interoceptive,0.4675156371091232,True,False,0.5063302652611356,0.4289349050644673,5,1
interoceptive,0.5142672008200355,False,False,0.40412168477975724,0.47347936318897405,5,1
interoceptive,0.5656939209020391,False,True,0.529363558231654,0.6324562373482852,5,1
interoceptive,0.5091245288118352,False,True,0.42549098821016523,0.4987148740579105,5,1
interoceptive,0.4582120759306517,False,False,0.5313443798647519,0.38338746959665204,5,1
interoceptive,0.5040332835237169,False,True,0.29214886052588146,0.3907053799719836,5,1
interoceptive,0.45362995517134524,False,True,0.6253939380042908,0.3878061654730259,5,1
interoceptive,0.4082669596542107,False,True,0.5378606769508057,0.44773438367221974,5,1
interoceptive,0.3674402636887897,True,True,0.5773016758313634,0.40661706947665727,5,1
interoceptive,0.3306962373199107,True,False,0.5421849473741787,0.23787671960107043,5,1
interoceptive,0.36376586105190184,False,False,0.2557686545761304,0.23066730435110624,5,1
interoceptive,0.4001424471570921,True,False,0.5040868263420626,0.4054220223555504,5,1
interoceptive,0.4401566918728013,False,True,0.39980296462734394,0.4326459770703616,5,1
interoceptive,0.3961410226855212,True,False,0.5534938623948867,0.5287474648217018,5,1
interoceptive,0.43575512495407337,False,False,0.4584107501239263,0.4260814680719207,5,1
interoceptive,0.47933063744948073,True,False,0.42499793514202466,0.4138627010291814,5,1
interoceptive,0.5272637011944289,True,True,0.35443784606383716,0.6025159570717107,5,1
exteroceptive,0.6100852404484696,True,True,0.49993353473465246,0.5282304296461288,5,1
exteroceptive,0.5490767164036227,False,False,0.36928222948004524,0.6476349814308737,5,1
exteroceptive,0.603984388043985,False,True,0.6358273591742766,0.697380771695296,5,1
exteroceptive,0.5435859492395866,True,True,0.4114170662516137,0.6839897070397747,5,1
exteroceptive,0.4892273543156279,True,False,0.4731825473963225,0.3240551951094916,5,1
exteroceptive,0.5381500897471907,True,True,0.6782021138590151,0.4948672503330115,5,1
exteroceptive,0.4843350807724716,True,True,0.20884073634261108,0.5243178606229314,5,1
exteroceptive,0.43590157269522445,False,False,0.5006876232175691,0.3248036329915833,5,1
exteroceptive,0.4794917299647469,False,False,0.6345116989985486,0.3858003838671755,5,1
exteroceptive,0.5274409029612217,True,False,0.4059243472139183,0.4335762321649695,5,1
exteroceptive,0.580184993257344,True,True,0.42413730899294516,0.4981930838269639,5,1
exteroceptive,0.5221664939316096,False,True,0.5419664309197614,0.5136776460156808,5,1
exteroceptive,0.4699498445384487,False,True,0.3618681889638812,0.646519754000543,5,1
exteroceptive,0.4229548600846038,False,True,0.46496497028108613,0.34649137333322294,5,1
exteroceptive,0.3806593740761434,True,False,0.44501448819189937,0.2750167416383398,5,1
exteroceptive,0.4187253114837578,True,False,0.4329011975154701,0.5693411477620902,5,1
exteroceptive,0.4605978426321336,False,False,0.6188240276242626,0.474377458833027,5,1
exteroceptive,0.506657626895347,False,True,0.46466350679016255,0.5032187394677691,5,1
exteroceptive,0.4559918642058123,True,False,0.4967306948578173,0.5526331146029284,5,1
exteroceptive,0.5015910506263935,False,False,0.45201827720721455,0.6932828794569831,5,1
exteroceptive,0.551750155689033,True,False,0.44248302245700943,0.5332657812188089,5,1
exteroceptive,0.6069251712579363,True,True,0.5304535157262096,0.568931398941952,5,1
exteroceptive,0.5462326541321427,True,False,0.587668465583973,0.5331800682197465,5,1
exteroceptive,0.600855919545357,False,True,0.5309723213931244,0.7034034366793233,5,1
exteroceptive,0.5407703275908213,True,False,0.4448526448077256,0.6785936843030544,5,1
exteroceptive,0.5948473603499035,False,True,0.21614397709160088,0.44003614381364475,5,1
exteroceptive,0.5353626243149131,True,True,0.6890819222853337,0.6161870859940146,5,1
exteroceptive,0.4818263618834218,False,True,0.3852759842559769,0.35111130032163074,5,1
exteroceptive,0.43364372569507964,True,False,0.4521103960523508,0.42302843157611364,5,1
exteroceptive,0.4770080982645876,False,True,0.4709536357893178,0.5773735233650069,5,1
exteroceptive,0.4293072884381289,False,True,0.6400181052846853,0.5500403884630742,5,1
exteroceptive,0.386376559594316,False,False,0.4597904167742907,0.35201624838043216,5,1
exteroceptive,0.42501421555374763,False,False,0.39632960578107934,0.2195711188553576,5,1
exteroceptive,0.4675156371091224,True,True,0.6282282791313711,0.31507514456863384,5,1
exteroceptive,0.4207640733982102,True,False,0.47380780538668915,0.3284550807174155,5,1
exteroceptive,0.46284048073803125,True,False,0.43119424338194345,0.4450089102187219,5,1
exteroceptive,0.5091245288118345,True,True,0.5482715073093121,0.4252456391127772,5,1
exteroceptive,0.458212075930651,True,False,0.4362223257476749,0.45189917471753815,5,1
exteroceptive,0.5040332835237161,False,True,0.49559131394117817,0.4162495642621701,5,1
exteroceptive,0.4536299551713445,False,False,0.567899416193488,0.47499469649007653,5,1
exteroceptive,0.49899295068847904,True,False,0.5299332375258774,0.5120327849945369,5,1
exteroceptive,0.548892245757327,True,False,0.37444078700708383,0.5863579584872561,5,1
exteroceptive,0.6037814703330597,True,True,0.4804989741430137,0.7081509118428406,5,1
exteroceptive,0.5434033232997538,True,True,0.7486795158630266,0.7089060354775808,5,1
exteroceptive,0.48906299096977845,False,True,0.6548263550502365,0.6338337273206697,5,1
exteroceptive,0.4401566918728006,True,True,0.49665387311818016,0.5543158575462201,5,1
exteroceptive,0.39614102268552054,False,True,0.47825088894705214,0.5437679674857382,5,1
exteroceptive,0.3565269204169685,True,False,0.4500009280873936,0.31837623061826476,5,1
exteroceptive,0.39217961245866534,True,False,0.5315184443785508,0.5055780395969778,5,1
exteroceptive,0.4313975737045319,True,True,0.6553188411836847,0.3180922413760655,5,1
interoceptive,0.474537331074986,True,False,0.30224926033638466,0.5717708268894238,6,1
interoceptive,0.5219910641824846,False,False,0.3968045710834046,0.5736091177582275,6,1
interoceptive,0.5741901706007332,True,False,0.4595690033570077,0.6664163694612749,6,1
interoceptive,0.6316091876608065,True,True,0.44174200813453773,0.65026704998667,6,1
interoceptive,0.5684482688947259,False,False,0.4932069428936364,0.7131006789690132,6,1
interoceptive,0.6252930957841986,True,False,0.5256128627243599,0.6329346845737328,6,1
interoceptive,0.6878224053626185,False,False,0.36974956347564336,0.6738222853458016,6,1
interoceptive,0.7566046458988804,False,True,0.5549275499586183,0.900093517204568,6,1
interoceptive,0.6809441813089924,False,True,0.515654301766815,0.8128532827219969,6,1
interoceptive,0.6128497631780931,False,True,0.41581590614750735,0.797047023795185,6,1
interoceptive,0.5515647868602839,True,True,0.5111874649922544,0.6799140762081923,6,1
interoceptive,0.4964083081742555,True,True,0.40979479006092207,0.5206547789330773,6,1
interoceptive,0.44676747735683,True,True,0.3410294109887808,0.3984122705410358,6,1
interoceptive,0.402090729621147,True,True,0.7000366175231388,0.30897378089556454,6,1
interoceptive,0.3618816566590323,True,False,0.5994728231244257,0.21112794908338603,6,1
interoceptive,0.3980698223249356,True,True,0.6257832635298607,0.31374993419413444,6,1
interoceptive,0.358262840092442,True,False,0.39007065298866217,0.2924773095948555,6,1
interoceptive,0.3940891241016863,False,False,0.3091264010656717,0.36741615419395846,6,1
interoceptive,0.4334980365118549,True,False,0.5344331764976151,0.3401462270767294,6,1
interoceptive,0.47684784016304044,True,False,0.5670800082519415,0.34322197332423887,6,1
interoceptive,0.5245326241793445,False,False,0.3344515058768922,0.4268727351493486,6,1
interoceptive,0.576985886597279,False,True,0.41934924526179573,0.5949480494125191,6,1
interoceptive,0.5192872979375511,True,True,0.5699659254541548,0.5690697573739624,6,1
interoceptive,0.467358568143796,True,False,0.3725692665082422,0.4817872668296897,6,1
interoceptive,0.5140944249581757,False,True,0.37932610754299645,0.526611937202868,6,1
interoceptive,0.4626849824623581,True,True,0.4789166794338533,0.2433720952718699,6,1
interoceptive,0.4164164842161223,False,False,0.5019280407429133,0.5198992636035557,6,1
interoceptive,0.4580581326377346,False,False,0.6582274212406523,0.19995228393408912,6,1
interoceptive,0.5038639459015081,False,False,0.37349362025609356,0.6065911753329157,6,1
interoceptive,0.5542503404916589,True,False,0.49356897727229,0.546210625788171,6,1
interoceptive,0.6096753745408249,False,True,0.48629791273382256,0.6726792371430931,6,1
interoceptive,0.5487078370867424,True,True,0.4565923228523385,0.6252964337716816,6,1
interoceptive,0.4938370533780682,True,True,0.4603089887588945,0.48114300153863127,6,1
interoceptive,0.4444533480402614,True,False,0.7160154254575863,0.3665416804888238,6,1
interoceptive,0.48889868284428756,True,True,0.37739399870565443,0.42635131171297497,6,1
interoceptive,0.4400088145598588,False,False,0.5851956936027536,0.49344871131629353,6,1
interoceptive,0.4840096960158447,False,True,0.5304224022679015,0.614982639852873,6,1
interoceptive,0.43560872641426024,True,True,0.4731776344229168,0.3462990910714667,6,1
interoceptive,0.39204785377283424,False,True,0.28889200076939536,0.44126420847655234,6,1
interoceptive,0.35284306839555085,False,False,0.505220780845546,0.3353022124706503,6,1
interoceptive,0.388127375235106,False,False,0.6112642990138453,0.41034193817331155,6,1
interoceptive,0.4269401127586166,False,False,0.6252529974490153,0.4197305043793612,6,1
interoceptive,0.4696341240344783,False,False,0.5080451050202605,0.6170916716162764,6,1
interoceptive,0.5165975364379262,False,False,0.44034369657553635,0.5164715345541175,6,1
interoceptive,0.5682572900817189,False,False,0.5033556545530453,0.6310552948666358,6,1
interoceptive,0.6250830190898908,True,False,0.5139934492907777,0.7081603515792769,6,1
interoceptive,0.68759132099888,False,False,0.5578287417416472,0.7573546678422605,6,1
interoceptive,0.756350453098768,True,True,0.36506247543863746,0.7560988978956953,6,1
interoceptive,0.6807154077888913,True,True,0.7456559934561966,0.6824878801800681,6,1
interoceptive,0.6126438670100022,True,True,0.5740827661055115,0.7363732882411593,6,1
control,0.45630298934969593,True,True,0.3245903205407508,0.34977504528649117,6,1
control,0.41067269041472637,False,True,0.48073827116260537,0.5003440438698094,6,1
control,0.36960542137325375,True,False,0.5943087212113383,0.45246041037938006,6,1
control,0.40656596351057916,False,False,0.46301942112250216,0.48849931732699453,6,1
control,0.4472225598616371,True,True,0.47871568398209613,0.4939981986610476,6,1
control,0.4025003038754734,False,True,0.5316129428602173,0.4869900679797772,6,1
control,0.3622502734879261,False,True,0.546073865009537,0.41564872600512826,6,1
control,0.3260252461391335,True,False,0.46190837816640473,0.3385301844799925,6,1
control,0.35862777075304686,False,True,0.4191017535067978,0.4219762133066655,6,1
control,0.3227649936777422,False,False,0.5057755638052546,0.36781912590129495,6,1
control,0.35504149304551647,True,False,0.3974100542098732,0.4633745178088159,6,1
control,0.39054564235006817,False,True,0.716536586427603,0.5924064597135511,6,1
control,0.35149107811506136,False,True,0.4568985366570717,0.2933850559981062,6,1
control,0.3163419703035552,False,True,0.5901787175745725,0.17617189124161128,6,1
control,0.2847077732731997,True,True,0.38566873751572534,0.3257696146563752,6,1
control,0.25623699594587973,True,False,0.5345432064000303,0.44894982782449033,6,1
control,0.2818606955404677,False,False,0.6351197565317742,0.4273331744918963,6,1
control,0.3100467650945145,True,False,0.829938156228012,0.4456675774870612,6,1
control,0.341051441603966,False,False,0.5851904333679063,0.3238865993169896,6,1
control,0.3751565857643626,False,False,0.5063675936688724,0.4891474844349333,6,1
control,0.4126722443407989,False,False,0.6199614298921365,0.3205236534451016,6,1
control,0.45393946877487884,True,False,0.4889142442527908,0.4716667778936585,6,1
control,0.4993334156523668,True,False,0.46881388598547097,0.38312837141151923,6,1
control,0.5492667572176035,True,True,0.4508506024066866,0.3747303548021023,6,1
control,0.4943400814958432,True,False,0.3749250215138652,0.6754929600080133,6,1
control,0.5437740896454275,True,False,0.3974620174209591,0.5162305124547047,6,1
control,0.5981514986099703,True,False,0.49515483496430923,0.42722683092703695,6,1
control,0.6579666484709674,True,True,0.38344313011926107,0.7221188335548712,6,1
control,0.5921699836238707,True,True,0.45675903640929005,0.6995984604535815,6,1
control,0.5329529852614837,False,False,0.4891719800891091,0.5261615496969748,6,1
control,0.5862482837876322,False,False,0.2617112652042141,0.5382356043965251,6,1
control,0.6448731121663954,False,True,0.41826539694375114,0.5614200412945696,6,1
control,0.5803858009497559,True,True,0.4396759963267759,0.6522992844052697,6,1
control,0.5223472208547804,True,True,0.30104087601974616,0.5199340384145191,6,1
control,0.47011249876930233,False,False,0.4135252680044618,0.42934302791704787,6,1
control,0.5171237486462326,False,True,0.6660048155769887,0.6279263143034463,6,1
control,0.4654113737816093,True,True,0.5377058936790734,0.5004826502026953,6,1
control,0.4188702364034484,False,True,0.45664416596516333,0.46658328557075557,6,1
control,0.37698321276310354,False,True,0.3726024355233093,0.5786779607742047,6,1
control,0.3392848914867932,True,False,0.6503491382333151,0.44666338221410806,6,1
control,0.37321338063547255,True,True,0.5051595963071497,0.4311685205097881,6,1
control,0.3358920425719253,False,False,0.5655900348271361,0.5151702557512737,6,1
control,0.36948124682911787,True,False,0.45890058356061364,0.2909206833780914,6,1
control,0.4064293715120297,True,True,0.41692734635661294,0.45236101405739026,6,1
control,0.3657864343608267,True,False,0.44859318921456626,0.36317413285306255,6,1
control,0.4023650777969094,False,True,0.5523347999094252,0.5546234570687678,6,1
control,0.36212857001721843,True,False,0.615233310346572,0.43237561898908144,6,1
control,0.3983414270189403,False,True,0.5321853104701707,0.6510429409563498,6,1
control,0.3585072843170463,False,True,0.5659194220152658,0.4209318853375053,6,1
control,0.3226565558853417,False,False,0.4115081491420304,0.43813501228582064,6,1
exteroceptive,0.38825781633407874,True,True,0.46145320093717024,0.4966723985467581,6,1
exteroceptive,0.34943203470067086,False,False,0.35827309751725167,0.519497125151852,6,1
exteroceptive,0.384375238170738,True,False,0.5893282357867988,0.4660783015410247,6,1
exteroceptive,0.4228127619878118,False,True,0.4107591523182603,0.4244752236188931,6,1
exteroceptive,0.3805314857890306,True,False,0.4542897470521413,0.3310699577227829,6,1
exteroceptive,0.4185846343679337,True,False,0.6141381537080226,0.41244605587037364,6,1
exteroceptive,0.4604430978047271,True,True,0.5654476352328405,0.4638146072720402,6,1
exteroceptive,0.4143987880242544,True,False,0.3805992169574593,0.6415088458429711,6,1
exteroceptive,0.4558386668266799,False,False,0.5516366777517474,0.5522164815714385,6,1
exteroceptive,0.501422533509348,True,True,0.3748698975254762,0.4078577796382842,6,1
exteroceptive,0.45128028015841315,False,True,0.37022778500765574,0.47998295038474326,6,1
exteroceptive,0.40615225214257183,True,True,0.6118714092101286,0.4683022345942979,6,1
exteroceptive,0.36553702692831463,False,False,0.3986424283359925,0.3639368719767598,6,1
exteroceptive,0.4020907296211461,False,True,0.4031329354774699,0.45878581938651497,6,1
exteroceptive,0.3618816566590315,True,True,0.5730969704302505,0.383289093062547,6,1
exteroceptive,0.32569349099312833,False,False,0.4969390662968117,0.3858547068659695,6,1
exteroceptive,0.3582628400924412,True,False,0.5702517884198446,0.33674166797638766,6,1
exteroceptive,0.39408912410168534,True,False,0.505459671514923,0.18922899796548792,6,1
exteroceptive,0.4334980365118539,True,True,0.35037838035153257,0.25324381903069393,6,1
exteroceptive,0.3901482328606685,True,False,0.5385855454573532,0.5762875002624694,6,1
exteroceptive,0.4291630561467354,False,False,0.5478391241601671,0.4171155168344674,6,1
exteroceptive,0.47207936176140897,True,True,0.5468086699456323,0.3323465365623457,6,1
exteroceptive,0.4248714255852681,True,False,0.637220567445951,0.6305635641900853,6,1
exteroceptive,0.46735856814379495,False,False,0.5467140089207326,0.5611000392582549,6,1
exteroceptive,0.5140944249581745,True,True,0.4115699959763199,0.5824575170171661,6,1
exteroceptive,0.46268498246235706,True,False,0.5287273946079298,0.6732289800420592,6,1
exteroceptive,0.5089534807085928,False,True,0.46139419866088577,0.41321691378992015,6,1
exteroceptive,0.45805813263773354,False,True,0.5692856996404025,0.4890447675809132,6,1
exteroceptive,0.4122523193739602,False,False,0.6199360427074329,0.4611151462508144,6,1
exteroceptive,0.45347755131135625,True,True,0.684261552628771,0.37246858903943786,6,1
exteroceptive,0.40812979618022066,False,True,0.44424174269496486,0.5645382682609117,6,1
exteroceptive,0.3673168165621986,False,False,0.6933081813431018,0.4657469278314348,6,1
exteroceptive,0.4040484982184185,False,True,0.41674359281740286,0.5821701769536807,6,1
exteroceptive,0.36364364839657665,True,False,0.5830443368313849,0.26466541272907973,6,1
exteroceptive,0.40000801323623436,True,False,0.3879406332780845,0.33977428760620676,6,1
exteroceptive,0.44000881455985785,False,True,0.4774098386172001,0.5318861176260634,6,1
exteroceptive,0.39600793310387206,False,False,0.6661195191253421,0.3265021486082253,6,1
exteroceptive,0.4356087264142593,False,True,0.5167096451092114,0.5291054830996818,6,1
exteroceptive,0.39204785377283335,False,True,0.46909214127590554,0.5842032126044877,6,1
exteroceptive,0.35284306839555,True,True,0.4830010305283103,0.47585224375454427,6,1
exteroceptive,0.31755876155599505,False,False,0.4703156507354033,0.23665533627976348,6,1
exteroceptive,0.3493146377115946,True,False,0.48037933997554233,0.331685075292039,6,1
exteroceptive,0.38424610148275407,True,True,0.6248126761297617,0.2799797375799058,6,1
exteroceptive,0.34582149133447865,True,True,0.48011437963148845,0.5360535901318482,6,1
exteroceptive,0.3112393422010308,True,False,0.47020641434307076,0.41987998963668915,6,1
exteroceptive,0.3423632764211339,True,True,0.614166749536127,0.2923488929053789,6,1
exteroceptive,0.3081269487790205,True,True,0.534631495876263,0.36229103201047536,6,1
exteroceptive,0.27731425390111847,False,True,0.408169632576361,0.30985881334133597,6,1
exteroceptive,0.24958282851100663,False,False,0.47844783613553465,0.24807199392574308,6,1
exteroceptive,0.2745411113621073,True,False,0.45764341402053527,0.36825100294522706,6,1
interoceptive,0.551379480309002,False,False,0.5849523552907423,0.6615759087251062,7,1
interoceptive,0.6065174283399022,True,True,0.41198709106200526,0.7283366476291261,7,1
interoceptive,0.545865685505912,False,True,0.46194893019283556,0.5048668148203111,7,1
interoceptive,0.4912791169553208,True,False,0.6490895950046267,0.5397339531257019,7,1
interoceptive,0.5404070286508529,True,True,0.5358333552023519,0.732034693856394,7,1
interoceptive,0.4863663257857676,False,False,0.48650385886063635,0.35201681552661424,7,1
interoceptive,0.5350029583643444,False,True,0.48398079267170147,0.4551016488715896,7,1
interoceptive,0.48150266252790996,True,False,0.6103718530545732,0.5100195593329766,7,1
interoceptive,0.529652928780701,False,True,0.41758749416154334,0.5554784316855251,7,1
interoceptive,0.4766876359026309,True,False,0.6411894494725736,0.5632608281528209,7,1
interoceptive,0.524356399492894,False,True,0.5031071647819029,0.5864846703459501,7,1
interoceptive,0.47192075954360463,True,True,0.5359592561189012,0.38127800704539744,7,1
interoceptive,0.42472868358924415,True,False,0.501503368423138,0.17288544336763628,7,1
interoceptive,0.4672015519481686,False,False,0.5482779660900402,0.6211503931104594,7,1
interoceptive,0.5139217071429855,False,True,0.56703013455761,0.5512500984237062,7,1
interoceptive,0.46252953642868694,False,True,0.566208681623597,0.5007217963454682,7,1
interoceptive,0.41627658278581825,False,True,0.5609426209957508,0.48896843275058877,7,1
interoceptive,0.3746489245072364,True,True,0.5675966826160593,0.30531942698584263,7,1
interoceptive,0.33718403205651276,False,False,0.4513308111629968,0.1675665857374534,7,1
interoceptive,0.37090243526216404,True,False,0.5722641609944316,0.4878624661589711,7,1
interoceptive,0.40799267878838047,False,True,0.45610736382511075,0.4265134745313336,7,1
interoceptive,0.36719341090954244,True,True,0.59334070047063,0.30843149429216965,7,1
interoceptive,0.3304740698185882,False,False,0.5267788370438101,0.21499891538802005,7,1
interoceptive,0.36352147680044705,False,False,0.5356090028248545,0.08755965234047047,7,1
interoceptive,0.3998736244804918,False,True,0.5710966649706068,0.30233209172196407,7,1
interoceptive,0.3598862620324426,False,False,0.42091702239903017,0.534341233052534,7,1
interoceptive,0.3958748882356869,False,False,0.5082624238564715,0.360619131289227,7,1
interoceptive,0.4354623770592556,True,True,0.4732385265923553,0.4437709734564572,7,1
interoceptive,0.3919161393533301,False,True,0.6586735591040382,0.523121559097594,7,1
interoceptive,0.3527245254179971,True,False,0.5041730103402486,0.4244621776796512,7,1
interoceptive,0.3879969779597968,True,False,0.4983328692093037,0.4645611980430069,7,1
interoceptive,0.4267966757557765,False,False,0.5275763926651293,0.3908894661086007,7,1
interoceptive,0.4694763433313542,False,False,0.5162685128756512,0.48197022491066027,7,1
interoceptive,0.5164239776644897,False,False,0.4827792230125354,0.5104360422180753,7,1
interoceptive,0.5680663754309386,True,False,0.5863958987897551,0.4470225882941127,7,1
interoceptive,0.6248730129740325,False,False,0.49562853831707976,0.5299158126412509,7,1
interoceptive,0.6873603142714358,False,True,0.5148492357109706,0.8562212649376153,7,1
interoceptive,0.6186242828442923,False,True,0.3690705583585101,0.759173223277269,7,1
interoceptive,0.556761854559863,True,False,0.5807581660200697,0.5462202775663534,7,1
interoceptive,0.6124380400158494,False,False,0.45396006363690267,0.6525108206118893,7,1
interoceptive,0.6736818440174345,True,True,0.5108377019138004,0.7332225905858863,7,1
interoceptive,0.6063136596156911,False,True,0.5153882085023604,0.5811394506227789,7,1
interoceptive,0.545682293654122,True,True,0.42121435530339946,0.5370522212065109,7,1
interoceptive,0.49111406428870985,False,True,0.5578667842540604,0.3141465180190882,7,1
interoceptive,0.4420026578598389,True,False,0.41581797614660865,0.2987657168077077,7,1
interoceptive,0.4862029236458228,False,True,0.5620931993434097,0.5839176304245475,7,1
interoceptive,0.43758263128124053,True,False,0.5950043419067282,0.395656148448309,7,1
interoceptive,0.4813408944093646,True,True,0.5264760235816959,0.5808737467967049,7,1
interoceptive,0.43320680496842817,False,True,0.6993834887805385,0.45052217863608607,7,1
interoceptive,0.3898861244715854,True,False,0.6331516459813181,0.2799496084838737,7,1
control,0.3549222114738759,False,False,0.47365533971393614,0.3397066860676946,7,1
control,0.3904144326212636,False,False,0.5587984223183904,0.4083841571406603,7,1
control,0.42945587588338996,False,False,0.3609994942139938,0.32442749275370353,7,1
control,0.472401463471729,True,False,0.5796401285823906,0.4579521063849914,7,1
control,0.519641609818902,False,True,0.5194606617598546,0.5660457258041632,7,1
control,0.4676774488370118,False,False,0.4936102891461645,0.5539570693415496,7,1
control,0.514445193720713,True,False,0.5670905837123654,0.4900289106152189,7,1
control,0.5658897130927844,False,True,0.47821856931771567,0.43350928124805316,7,1
control,0.5093007417835059,False,True,0.3686286878659941,0.45529563978179577,7,1
control,0.4583706676051553,False,True,0.4274351836228973,0.6043629328651433,7,1
control,0.4125336008446398,False,True,0.5263083665063795,0.6176962162673534,7,1
control,0.37128024076017585,False,True,0.5206617775019234,0.5360642371639038,7,1
control,0.3341522166841583,False,True,0.48506587182914324,0.43815545674556394,7,1
control,0.30073699501574247,True,True,0.5199439157881487,0.46330323381925104,7,1
control,0.27066329551416823,False,False,0.5470687064368716,0.41388170197828344,7,1
control,0.2977296250655851,True,True,0.42890685342544965,0.37326082654079756,7,1
control,0.2679566625590266,True,False,0.39969646290706734,0.39713238522500316,7,1
control,0.2947523288149293,True,True,0.6904748345113534,0.4137409837578362,7,1
control,0.2652770959334364,True,False,0.3988471103950946,0.2608117242894745,7,1
control,0.29180480552678006,True,False,0.5315824698916337,0.3693657572241806,7,1
control,0.3209852860794581,True,False,0.4682950514062055,0.48243539297924176,7,1
control,0.3530838146874039,True,False,0.5038949719023778,0.389347254534688,7,1
control,0.38839219615614434,False,True,0.5244979264573494,0.5940936515674184,7,1
control,0.3495529765405299,True,False,0.5771408528854527,0.43437798292797686,7,1
control,0.38450827419458294,True,True,0.5569653577200806,0.43586702044752124,7,1
control,0.3460574467751247,True,True,0.5340108143151513,0.5374723393161778,7,1
control,0.3114517020976122,True,False,0.5727226126316446,0.454996231950938,7,1
control,0.34259687230737346,True,False,0.481286188471289,0.3429779332492049,7,1
control,0.3768565595381108,True,False,0.5034281421269894,0.4564639639706033,7,1
control,0.41454221549192194,True,False,0.673608792108582,0.3341560199122329,7,1
control,0.45599643704111414,True,False,0.48012355866257506,0.49950249346478315,7,1
control,0.5015960807452255,False,False,0.4334178733796885,0.4212831542484641,7,1
control,0.5517556888197481,False,True,0.544907209165716,0.48266654482929083,7,1
control,0.49658011993777335,False,True,0.46036027496148657,0.5331338160391643,7,1
control,0.446922107943996,False,True,0.510347907122873,0.668031106853857,7,1
control,0.4022298971495964,False,True,0.38429363992271803,0.5387786829693895,7,1
control,0.36200690743463676,False,False,0.4925795527813387,0.36128412218889633,7,1
control,0.3982075981781005,True,False,0.5190226149600717,0.364415583964863,7,1
control,0.43802835799591056,False,False,0.43651710937937527,0.49989420892251485,7,1
control,0.48183119379550166,True,False,0.5838863484643482,0.5118849857179545,7,1
control,0.5300143131750519,True,False,0.7038053837839401,0.4234478986062624,7,1
control,0.5830157444925571,False,False,0.4090542436682113,0.6185751040729344,7,1
control,0.6413173189418129,True,False,0.5876039123786647,0.43021188587801057,7,1
control,0.7054490508359942,False,False,0.330349240574379,0.7638258895794333,7,1
control,0.7759939559195936,False,True,0.5707135096828932,0.8133840352507129,7,1
control,0.6983945603276343,False,False,0.4919730623537633,0.5608342526027073,7,1
control,0.7682340163603978,False,False,0.5320611904789667,0.6209305904602537,7,1
control,0.8450574179964376,True,True,0.5860632034565831,0.6572674040019266,7,1
control,0.7605516761967939,True,True,0.473602028201619,0.4282457991609361,7,1
control,0.6844965085771145,False,False,0.6203394609385873,0.7004108407648261,7,1
exteroceptive,0.30199522249831806,False,False,0.6628584412356221,0.4235080087816205,7,1
exteroceptive,0.3321947447481499,False,False,0.3256125044700892,0.3145224251146326,7,1
exteroceptive,0.36541421922296496,False,True,0.6137810851692147,0.47404142175286057,7,1
exteroceptive,0.3288727973006685,False,True,0.6793301895040443,0.4371223773349003,7,1
exteroceptive,0.29598551757060165,False,False,0.5538321272447458,0.4167246556543347,7,1
exteroceptive,0.3255840693276618,True,True,0.5443419164569168,0.5409698627744014,7,1
exteroceptive,0.29302566239489564,True,False,0.6602869742372864,0.3349604959636122,7,1
exteroceptive,0.3223282286343852,True,True,0.671837823571136,0.47046973501916006,7,1
exteroceptive,0.29009540577094667,False,False,0.5340273803328788,0.21074475411757027,7,1
exteroceptive,0.3191049463480414,False,False,0.4548395952587035,0.3382175852828466,7,1
exteroceptive,0.35101544098284554,True,False,0.44654081695113124,0.4107623542312733,7,1
exteroceptive,0.3861169850811301,False,True,0.44533337734539225,0.48808289921958764,7,1
exteroceptive,0.3475052865730171,False,False,0.563246999117345,0.28005848696523056,7,1
exteroceptive,0.3822558152303188,True,True,0.5549452629664374,0.37152494383797374,7,1
exteroceptive,0.34403023370728697,True,True,0.4293299432986391,0.3707135274652436,7,1
exteroceptive,0.30962721033655827,False,True,0.3560720432531086,0.5026703505737361,7,1
exteroceptive,0.27866448930290244,False,False,0.6697296759608783,0.3332806026257097,7,1
exteroceptive,0.3065309382331927,True,False,0.4024202820265027,0.3763319901118709,7,1
exteroceptive,0.33718403205651204,False,False,0.5077814884815964,0.39982661969951455,7,1
exteroceptive,0.37090243526216327,True,False,0.49125070748076166,0.4103414169946609,7,1
exteroceptive,0.40799267878837964,True,False,0.5813285894386551,0.34323572699794275,7,1
exteroceptive,0.4487919466672176,False,False,0.48072733034270715,0.4558323987284315,7,1
exteroceptive,0.4936711413339394,False,False,0.51251667970617,0.4697734257525211,7,1
exteroceptive,0.5430382554673334,True,True,0.3637847616441308,0.6438807270953446,7,1
exteroceptive,0.48873442992060007,False,True,0.5023763032962906,0.40539136537170706,7,1
exteroceptive,0.4398609869285401,False,True,0.520367006500723,0.5004795542278334,7,1
exteroceptive,0.39587488823568606,False,True,0.43147434416150116,0.3242761193213661,7,1
exteroceptive,0.35628739941211746,False,False,0.3438469112675453,0.3453630502450758,7,1
exteroceptive,0.39191613935332925,True,True,0.6252891238516782,0.5582549118239387,7,1
exteroceptive,0.3527245254179963,True,False,0.4931602902518269,0.3356151252482961,7,1
exteroceptive,0.387996977959796,True,True,0.48028528884992966,0.4060077311051174,7,1
exteroceptive,0.3491972801638164,False,True,0.4859820993893025,0.5264068778040928,7,1
exteroceptive,0.31427755214743475,False,False,0.32033883833884935,0.17093832047890564,7,1
exteroceptive,0.34570530736217825,False,True,0.23580196940667603,0.33558388122262633,7,1
exteroceptive,0.31113477662596045,True,False,0.550533940555807,0.3345135026580979,7,1
exteroceptive,0.34224825428855654,True,False,0.5743246124245236,0.38275097485989923,7,1
exteroceptive,0.37647307971741223,True,False,0.5245615826014576,0.4750048300703582,7,1
exteroceptive,0.4141203876891535,True,True,0.40835070218500574,0.3667695856881913,7,1
exteroceptive,0.37270834892023813,False,True,0.43351390039521065,0.34001303118937876,7,1
exteroceptive,0.3354375140282143,True,False,0.5507266590523386,0.34313895812028555,7,1
exteroceptive,0.36898126543103577,True,False,0.4561567756561936,0.4114284910851616,7,1
exteroceptive,0.40587939197413936,False,False,0.4253384482069156,0.19410288555847544,7,1
exteroceptive,0.44646733117155335,True,True,0.6972402610489314,0.35913741237984054,7,1
exteroceptive,0.401820598054398,False,True,0.47184477143825987,0.28657571454771535,7,1
exteroceptive,0.3616385382489582,False,False,0.4690830783723509,0.3087540440987621,7,1
exteroceptive,0.39780239207385404,True,True,0.5101672813003587,0.3909437399774363,7,1
exteroceptive,0.35802215286646866,False,False,0.45383546431826827,0.33917981941194886,7,1
exteroceptive,0.39382436815311556,False,True,0.43372414517827645,0.5942363770976975,7,1
exteroceptive,0.354441931337804,True,False,0.5682924978270811,0.3139969379325257,7,1
exteroceptive,0.38988612447158444,True,True,0.43797212026317617,0.32987271546352814,7,1
interoceptive,0.42887473691874395,False,False,0.2871613231858729,0.3379096277456847,8,1
interoceptive,0.4717622106106184,False,False,0.4720095962759219,0.43044793571861123,8,1
interoceptive,0.5189384316716803,False,False,0.5220672725417599,0.4887838690853649,8,1
interoceptive,0.5708322748388484,True,False,0.3810995614084398,0.6349364585217627,8,1
interoceptive,0.6279155023227332,False,True,0.4884834279142009,0.5911488382422848,8,1
interoceptive,0.5651239520904598,True,True,0.37945667216337664,0.6463374055651758,8,1
interoceptive,0.5086115568814139,False,False,0.5191210152312519,0.7090440740208436,8,1
interoceptive,0.5594727125695553,True,True,0.5033956944951888,0.9114520517995125,8,1
interoceptive,0.5035254413125998,False,False,0.5357938724647257,0.4683582267251648,8,1
interoceptive,0.5538779854438598,False,False,0.5300158589030761,0.5795384638519422,8,1
interoceptive,0.6092657839882458,False,True,0.6897657887465436,0.6952432170431787,8,1
interoceptive,0.5483392055894213,True,False,0.49209565782407805,0.43677963969721206,8,1
interoceptive,0.6031731261483635,True,True,0.48382826049347716,0.7115141586943399,8,1
interoceptive,0.5428558135335272,False,True,0.42285444718187715,0.600854266487906,8,1
interoceptive,0.4885702321801745,False,False,0.6536531778108011,0.5330166870142791,8,1
interoceptive,0.5374272553981919,True,False,0.7097129304260935,0.4875939516459962,8,1
interoceptive,0.5911699809380112,False,True,0.6537748126917788,0.7522877268466538,8,1
interoceptive,0.5320529828442101,False,False,0.6629412691785431,0.42157248423042126,8,1
interoceptive,0.5852582811286312,False,False,0.5336272294680829,0.5552370930242188,8,1
interoceptive,0.6437841092414944,True,True,0.515540305373887,0.7698254141839372,8,1
interoceptive,0.579405698317345,False,True,0.3997506431285032,0.6569687024525995,8,1
interoceptive,0.5214651284856106,True,True,0.4157459177070061,0.5209261596257483,8,1
interoceptive,0.4693186156370495,False,True,0.3535167084816109,0.6589355471814423,8,1
interoceptive,0.4223867540733446,True,False,0.49326964331388246,0.4616677033885654,8,1
interoceptive,0.4646254294806791,True,True,0.5160099972157667,0.7191459729962377,8,1
interoceptive,0.4181628865326112,True,True,0.5479887029554618,0.41311832925621167,8,1
interoceptive,0.3763465978793501,False,True,0.6265245906517469,0.3445489997566311,8,1
interoceptive,0.3387119380914151,False,False,0.6443626099659201,0.22451813898414666,8,1
interoceptive,0.37258313190055664,True,False,0.648294399974568,0.33806972837551064,8,1
interoceptive,0.4098414450906123,False,False,0.40209963837577856,0.3740909433211518,8,1
interoceptive,0.4508255895996736,False,False,0.39006735224416483,0.37619769997695485,8,1
interoceptive,0.495908148559641,True,False,0.2700547047058449,0.4521390945256034,8,1
interoceptive,0.5454989634156051,False,True,0.35685918333945665,0.4526552790843862,8,1
interoceptive,0.4909490670740446,True,False,0.6852285747193035,0.27645366011810585,8,1
interoceptive,0.5400439737814491,False,True,0.33974066432872807,0.35750415353665566,8,1
interoceptive,0.4860395764033042,False,True,0.5283371904190419,0.43775744380813525,8,1
interoceptive,0.43743561876297377,False,False,0.39026845333310267,0.40204078999597925,8,1
interoceptive,0.4811791806392712,False,True,0.5119740040944236,0.4480606458332399,8,1
interoceptive,0.43306126257534405,True,True,0.6550990051320047,0.46501163906362897,8,1
interoceptive,0.38975513631780967,True,False,0.46657192482194726,0.2584094552661565,8,1
interoceptive,0.42873064994959065,True,True,0.5280262658702698,0.4722909960808932,8,1
interoceptive,0.38585758495463157,True,False,0.3596334189628436,0.3174638329180698,8,1
interoceptive,0.42444334345009477,True,False,0.6026254165088479,0.2641918074398735,8,1
interoceptive,0.46688767779510426,True,False,0.5730305085611682,0.5443132916748569,8,1
interoceptive,0.5135764455746147,True,True,0.5577116750877636,0.621002316614806,8,1
interoceptive,0.46221880101715324,False,False,0.4219603683878202,0.33180088380345896,8,1
interoceptive,0.5084406811188686,False,True,0.4957050311112688,0.4698141221357008,8,1
interoceptive,0.4575966130069818,True,False,0.36071576222441093,0.2933502087928912,8,1
interoceptive,0.50335627430768,True,False,0.5337113968270971,0.41178204173592864,8,1
interoceptive,0.5536919017384481,True,False,0.31874088478896045,0.6200146956676894,8,1
exteroceptive,0.350897512024426,False,True,0.5395356253531859,0.4872706249704269,8,1
exteroceptive,0.3158077608219834,True,True,0.5460337797307743,0.31020744990346255,8,1
exteroceptive,0.2842269847397851,True,False,0.6756053593539793,0.39317802218380044,8,1
exteroceptive,0.31264968321376363,True,True,0.32434929480766916,0.4651388636957574,8,1
exteroceptive,0.28138471489238726,False,False,0.48325299018549134,0.19647882787487264,8,1
exteroceptive,0.309523186381626,True,True,0.46457947791833815,0.30958600899487243,8,1
exteroceptive,0.2785708677434634,True,True,0.5382170076426747,0.39179608611161865,8,1
exteroceptive,0.25071378096911706,False,False,0.5968410856915695,0.2854575891756987,8,1
exteroceptive,0.2757851590660288,True,False,0.5848627452407305,0.5721367455651069,8,1
exteroceptive,0.3033636749726317,True,True,0.36727821463217214,0.4195986560676088,8,1
exteroceptive,0.2730273074753686,True,False,0.33459098443548324,0.46433537669434255,8,1
exteroceptive,0.30033003822290544,True,False,0.46352032384695924,0.19013229444392407,8,1
exteroceptive,0.330363042045196,False,False,0.5200426337934001,0.3898147870479802,8,1
exteroceptive,0.36339934624971565,False,False,0.37943122780347605,0.21747005680330422,8,1
exteroceptive,0.39973928087468724,False,True,0.4886977274252592,0.5409076836561313,8,1
exteroceptive,0.35976535278721855,True,False,0.5006997833895719,0.2932226239642078,8,1
exteroceptive,0.39574188806594046,True,True,0.7101935028312634,0.5254531447889718,8,1
exteroceptive,0.35616769925934644,True,False,0.5571408528739344,0.31519257984860916,8,1
exteroceptive,0.3917844691852811,True,True,0.4683536166676124,0.3859011978637575,8,1
exteroceptive,0.35260602226675297,False,True,0.3204724449241491,0.35425431186909706,8,1
exteroceptive,0.3173454200400777,False,True,0.6220088512733228,0.46741433443355657,8,1
exteroceptive,0.28561087803606994,True,False,0.5179237970367583,0.41776593711984256,8,1
exteroceptive,0.31417196583967694,True,False,0.6147964662283544,0.41156533305361714,8,1
exteroceptive,0.3455891624236447,False,False,0.27166653136941704,0.34941718706594743,8,1
exteroceptive,0.3801480786660092,False,False,0.4968364601108149,0.40000282059287584,8,1
exteroceptive,0.41816288653261013,False,False,0.4627388089209495,0.5870421400661654,8,1
exteroceptive,0.45997917518587117,True,True,0.502239155884805,0.3832321623915731,8,1
exteroceptive,0.41398125766728405,True,True,0.6151472220016239,0.51820453988281,8,1
exteroceptive,0.37258313190055564,False,False,0.39390543139528955,0.3632048785237215,8,1
exteroceptive,0.4098414450906112,False,False,0.39777943775144375,0.5470129636839083,8,1
exteroceptive,0.4508255895996724,False,False,0.42622652719973886,0.5503852628905385,8,1
exteroceptive,0.49590814855963966,False,False,0.472971109798604,0.38730100790377686,8,1
exteroceptive,0.5454989634156037,False,False,0.6450791387549587,0.5331923066590898,8,1
exteroceptive,0.600048859757164,True,True,0.4845420566932681,0.6088745538221931,8,1
exteroceptive,0.5400439737814476,True,False,0.6457235185378893,0.4871021249236701,8,1
exteroceptive,0.5940483711595924,False,True,0.5599328725301278,0.526663601093442,8,1
exteroceptive,0.5346435340436332,True,True,0.5334944535570011,0.500019318817468,8,1
exteroceptive,0.4811791806392699,False,True,0.6469662973984471,0.6403737468962963,8,1
exteroceptive,0.43306126257534294,True,False,0.510903897796234,0.43738474653796144,8,1
exteroceptive,0.47636738883287727,False,False,0.5667582161461161,0.2839314692302075,8,1
exteroceptive,0.524004127716165,True,False,0.5070356309577456,0.34440038554722163,8,1
exteroceptive,0.5764045404877816,False,False,0.4838573035893928,0.51347687825427,8,1
exteroceptive,0.6340449945365597,False,True,0.3311435929267116,0.5328399107058586,8,1
exteroceptive,0.5706404950829037,False,True,0.5033708252615526,0.6973162892935358,8,1
exteroceptive,0.5135764455746133,True,True,0.48598570325652807,0.5538338108408121,8,1
exteroceptive,0.462218801017152,True,True,0.7563803224184893,0.4433825870973156,8,1
exteroceptive,0.41599692091543683,True,True,0.6732294831901449,0.363336774997305,8,1
exteroceptive,0.37439722882389315,True,False,0.6537851648831017,0.4928414980014931,8,1
exteroceptive,0.4118369517062825,False,False,0.6090625363317778,0.36707587150133575,8,1
exteroceptive,0.4530206468769108,False,False,0.5049986659724944,0.5486324476207031,8,1
control,0.752946159434826,True,False,0.5003413350580245,0.8740328180099795,8,1
control,0.8282407753783086,False,True,0.5996357167282103,0.6847697596436307,8,1
control,0.7454166978404778,False,True,0.43525300251019733,0.6614694532562218,8,1
control,0.6708750280564301,True,False,0.5886180026796158,0.5387201206481929,8,1
control,0.7379625308620731,False,True,0.5381932499138814,0.652267950409651,8,1
control,0.6641662777758658,False,True,0.5152049969659723,0.7170145744664176,8,1
control,0.5977496499982792,False,True,0.5709660645091782,0.8280619512831142,8,1
control,0.5379746849984512,True,True,0.5780242477394133,0.5233669626910464,8,1
control,0.4841772164986061,True,True,0.3722727671605571,0.5058280113023031,8,1
control,0.43575949484874554,True,True,0.4361877279468096,0.44735350071691593,8,1
control,0.392183545363871,True,False,0.4699417691146104,0.49343931371593763,8,1
control,0.4314018999002581,False,False,0.48842958464138775,0.6482430833159774,8,1
control,0.47454208989028396,True,False,0.34091826009041426,0.5671987417563649,8,1
control,0.5219962988793124,True,False,0.28864207621522264,0.5094427917045526,8,1
control,0.5741959287672437,False,True,0.6115345058130398,0.4526585757396163,8,1
control,0.5167763358905193,True,True,0.39977097208905976,0.5249971935563209,8,1
control,0.4650987023014674,False,False,0.3486975575232575,0.33408083327059246,8,1
control,0.5116085725316142,True,True,0.44531492592772404,0.5097437222813986,8,1
control,0.4604477152784528,True,True,0.6416413095695025,0.34083237094500374,8,1
control,0.41440294375060754,False,False,0.5338314931996558,0.43604909653221696,8,1
control,0.45584323812566835,True,False,0.5022659084910674,0.36380469527669224,8,1
control,0.5014275619382352,False,False,0.4587907118919579,0.4112082922229576,8,1
control,0.5515703181320588,True,True,0.49849778651341337,0.6092150036897324,8,1
control,0.49641328631885295,False,True,0.4518613849408478,0.5713265736311759,8,1
control,0.44677195768696765,True,False,0.5033494248734954,0.36942613029166377,8,1
control,0.4914491534556645,True,False,0.6961341182445664,0.4662816394597264,8,1
control,0.540594068801231,True,True,0.5609369626261623,0.5801941105286865,8,1
control,0.4865346619211079,False,True,0.5422244338794686,0.5306773696954656,8,1
control,0.4378811957289971,True,True,0.4594838863790181,0.4608049025979078,8,1
control,0.3940930761560974,False,False,0.6723735706886025,0.46749912593549825,8,1
control,0.4335023837717072,False,True,0.3284544909829965,0.5577494672972523,8,1
control,0.39015214539453646,True,False,0.4168282445629008,0.3558215547789108,8,1
