condition,contrast,is_synchronous,response,rt,detection_prob,participant_id,trial_idx,trial_num
interoceptive,0.5,True,asynchronous,0.6007672295194495,0.3629111427808683,1,0,1
interoceptive,0.45,True,asynchronous,0.5255241914780393,0.4554342675768627,1,0,1
interoceptive,0.405,True,asynchronous,0.4942656737502254,0.26756103382040336,1,0,1
interoceptive,0.36450000000000005,True,asynchronous,0.3355364037746472,0.3582920159178114,1,0,1
interoceptive,0.32805000000000006,False,asynchronous,0.530947701184771,0.31549698904972817,1,0,1
interoceptive,0.2952450000000001,False,asynchronous,0.5872624253121826,0.36498786339384603,1,0,1
interoceptive,0.2657205000000001,False,asynchronous,0.36357860160908767,0.4094686790015325,1,0,1
interoceptive,0.23914845000000007,False,asynchronous,0.6729047976101022,0.1321775842196607,1,0,1
interoceptive,0.21523360500000008,False,asynchronous,0.5084694624287424,0.0089597557954251,1,0,1
interoceptive,0.19371024450000007,True,asynchronous,0.31320919824482363,0.3172887929477659,1,0,1
interoceptive,0.17433922005000008,True,asynchronous,0.42330621163865806,0.0466603974834698,1,0,1
interoceptive,0.15690529804500009,True,synchronous,0.4498846571149912,0.2419217398007691,1,0,1
interoceptive,0.14121476824050008,True,asynchronous,0.401519394004224,0.0,1,0,1
interoceptive,0.12709329141645007,False,asynchronous,0.6571188907021077,0.08276645229684271,1,0,1
interoceptive,0.11438396227480506,False,asynchronous,0.3586201773702353,0.17901019444898245,1,0,1
interoceptive,0.10294556604732455,True,asynchronous,0.5259430105914711,0.0970631022172723,1,0,1
interoceptive,0.0926510094425921,False,asynchronous,0.29942339466670964,0.09130425776111803,1,0,1
interoceptive,0.08338590849833288,False,asynchronous,0.5131763427378949,0.0,1,0,1
interoceptive,0.0750473176484996,False,asynchronous,0.3734235675259611,0.006543961148861702,1,0,1
interoceptive,0.06754258588364964,False,asynchronous,0.5675116656047959,0.14879071486299406,1,0,1
interoceptive,0.06078832729528468,False,asynchronous,0.47744829135253647,0.0,1,0,1
interoceptive,0.05470949456575622,False,asynchronous,0.5909166078565091,0.30484078053015645,1,0,1
interoceptive,0.0492385451091806,True,synchronous,0.31659294875430316,0.1905337629511462,1,0,1
interoceptive,0.04431469059826254,False,asynchronous,0.5644023601046467,0.03473464827487241,1,0,1
interoceptive,0.039883221538436285,True,asynchronous,0.5411276056553119,0.0854829397166408,1,0,1
interoceptive,0.03589489938459266,False,synchronous,0.4160780093102538,0.16466375750162804,1,0,1
interoceptive,0.032305409446133394,True,asynchronous,0.4859427137184816,0.05426777355019387,1,0,1
interoceptive,0.029074868501520055,False,asynchronous,0.511034889326868,0.05319482396563806,1,0,1
interoceptive,0.02616738165136805,True,asynchronous,0.4186108881638427,0.10295204604717964,1,0,1
interoceptive,0.023550643486231246,True,asynchronous,0.6178361844634683,0.0,1,0,1
interoceptive,0.021195579137608122,False,asynchronous,0.5053156667844915,0.3211198766690678,1,0,1
interoceptive,0.01907602122384731,True,asynchronous,0.5405266393692664,0.038351246836765086,1,0,1
interoceptive,0.01716841910146258,False,asynchronous,0.5105658983536261,0.17207303348343833,1,0,1
interoceptive,0.015451577191316321,True,asynchronous,0.29038393612167757,0.18755709130404885,1,0,1
interoceptive,0.01390641947218469,True,asynchronous,0.47961837014268777,0.0,1,0,1
interoceptive,0.012515777524966222,True,asynchronous,0.5015643140907063,0.0,1,0,1
interoceptive,0.0112641997724696,False,synchronous,0.3389825554294866,0.2609988484797168,1,0,1
interoceptive,0.010137779795222639,False,asynchronous,0.22649257499112946,0.006032274381480768,1,0,1
interoceptive,0.01,True,asynchronous,0.5894664698547224,0.05411314227410194,1,0,1
interoceptive,0.01,True,asynchronous,0.30176745677857814,0.0011208020866023266,1,0,1
interoceptive,0.01,True,asynchronous,0.600410652897261,0.0,1,0,1
interoceptive,0.01,False,asynchronous,0.6374145990030079,0.04101960211124918,1,0,1
interoceptive,0.01,False,asynchronous,0.46494392339324875,0.12752343882699174,1,0,1
interoceptive,0.01,False,asynchronous,0.4569586975526664,0.0,1,0,1
interoceptive,0.01,True,asynchronous,0.5824821450436524,0.03480352228451851,1,0,1
interoceptive,0.01,True,asynchronous,0.5395035460353665,0.09004051980503693,1,0,1
interoceptive,0.01,False,asynchronous,0.4224928481256658,0.0,1,0,1
interoceptive,0.01,False,asynchronous,0.37588904309792626,0.0,1,0,1
interoceptive,0.01,False,asynchronous,0.3930213419603718,0.30385077584067,1,0,1
interoceptive,0.01,False,asynchronous,0.38694269065430636,0.0,1,0,1
control,0.5,False,synchronous,0.5048678062108573,0.5402131615650396,1,0,1
control,0.45,False,asynchronous,0.4963997149672247,0.4010057058823022,1,0,1
control,0.405,False,synchronous,0.4758537520966129,0.4420376077035812,1,0,1
control,0.36450000000000005,False,synchronous,0.4939668308300113,0.47204841310855955,1,0,1
control,0.32805000000000006,False,asynchronous,0.4008465131224558,0.48376654199222247,1,0,1
control,0.2952450000000001,True,asynchronous,0.4161417542710993,0.39217882526863035,1,0,1
control,0.2657205000000001,True,asynchronous,0.617856339661266,0.3496889909584934,1,0,1
control,0.23914845000000007,False,asynchronous,0.43517783847698505,0.16906378891637464,1,0,1
control,0.21523360500000008,True,asynchronous,0.5241846345010892,0.3271736208964303,1,0,1
control,0.19371024450000007,True,asynchronous,0.5525957753299323,0.11077106688914637,1,0,1
control,0.17433922005000008,False,synchronous,0.3967685718878767,0.37986779280319277,1,0,1
control,0.15690529804500009,True,synchronous,0.48873119419867855,0.25190340591131344,1,0,1
control,0.14121476824050008,True,asynchronous,0.5839639711132355,0.3737975229103458,1,0,1
control,0.12709329141645007,True,asynchronous,0.4807783462723184,0.39952541965326255,1,0,1
control,0.11438396227480506,False,asynchronous,0.3909694926098481,0.14535949472688184,1,0,1
control,0.10294556604732455,True,asynchronous,0.4822156165405136,0.24239232596105703,1,0,1
control,0.0926510094425921,True,asynchronous,0.6208461077555784,0.24252237188623008,1,0,1
control,0.08338590849833288,True,asynchronous,0.46760355093719363,0.19538376044545158,1,0,1
control,0.0750473176484996,True,synchronous,0.4681649467171399,0.5088179320122143,1,0,1
control,0.06754258588364964,False,asynchronous,0.42345329420822175,0.27136260936639023,1,0,1
control,0.06078832729528468,True,asynchronous,0.39463725231557134,0.22644561090755194,1,0,1
control,0.05470949456575622,False,asynchronous,0.5083299867286812,0.2112236233082764,1,0,1
control,0.0492385451091806,False,asynchronous,0.5147597992419399,0.37708718340825065,1,0,1
control,0.04431469059826254,True,synchronous,0.6105556237094553,0.3076571152109354,1,0,1
control,0.039883221538436285,True,asynchronous,0.584461361301575,0.18345979190722903,1,0,1
control,0.03589489938459266,False,asynchronous,0.5539714567596145,0.18609962817603504,1,0,1
control,0.032305409446133394,True,asynchronous,0.39622317181056715,0.2884676985136003,1,0,1
control,0.029074868501520055,True,asynchronous,0.5306499563025089,0.2609874721258109,1,0,1
control,0.02616738165136805,True,asynchronous,0.3994998206472415,0.23335228746261785,1,0,1
control,0.023550643486231246,False,asynchronous,0.2743818426637206,0.26667993453662253,1,0,1
control,0.021195579137608122,False,asynchronous,0.5412735569855718,0.04068546460404576,1,0,1
control,0.01907602122384731,True,asynchronous,0.40324372422164917,0.21685873818923895,1,0,1
control,0.01716841910146258,True,asynchronous,0.5526969588528111,0.22843268265903105,1,0,1
control,0.015451577191316321,True,asynchronous,0.4563443319436001,0.03741634833206903,1,0,1
control,0.01390641947218469,False,asynchronous,0.6241925318707717,0.15937620420873178,1,0,1
control,0.012515777524966222,True,synchronous,0.2247239422234881,0.2858005812575543,1,0,1
control,0.0112641997724696,False,synchronous,0.5197800483091478,0.21029456797959487,1,0,1
control,0.010137779795222639,False,asynchronous,0.4698538874386912,0.29662964077432175,1,0,1
control,0.01,False,asynchronous,0.4974588299300191,0.37692649651708704,1,0,1
control,0.01,False,asynchronous,0.6047081015480469,0.3291535702597601,1,0,1
control,0.01,True,asynchronous,0.5297763370689067,0.2098768086945738,1,0,1
control,0.01,True,synchronous,0.44447957004421085,0.38097729625012566,1,0,1
control,0.01,True,asynchronous,0.7595931285197808,0.10417300641741986,1,0,1
control,0.01,False,asynchronous,0.5416788505443197,0.31538644307714786,1,0,1
control,0.01,False,asynchronous,0.7395448754504482,0.29123633697162077,1,0,1
control,0.01,True,asynchronous,0.5955765867636008,0.04930732891072562,1,0,1
control,0.01,True,asynchronous,0.5091480147138784,0.0,1,0,1
control,0.01,True,asynchronous,0.6692936155891257,0.28501420592982657,1,0,1
control,0.01,False,asynchronous,0.38186064677239656,0.18620999062882182,1,0,1
control,0.01,True,asynchronous,0.5504142255487636,0.2906268655211729,1,0,1
exteroceptive,0.5,False,asynchronous,0.5814328852419904,0.286538828664455,1,0,1
exteroceptive,0.45,False,asynchronous,0.39463926416847517,0.3781916375120217,1,0,1
exteroceptive,0.405,True,synchronous,0.5342382301793955,0.6102180737592696,1,0,1
exteroceptive,0.36450000000000005,False,synchronous,0.6109437678524098,0.3649641481355263,1,0,1
exteroceptive,0.32805000000000006,True,asynchronous,0.4219938767383382,0.294054160325098,1,0,1
exteroceptive,0.2952450000000001,False,asynchronous,0.6587628580466764,0.5388100991858263,1,0,1
exteroceptive,0.2657205000000001,True,asynchronous,0.5311720329500601,0.24198079862469862,1,0,1
exteroceptive,0.23914845000000007,True,asynchronous,0.4488584908387684,0.23687674574311252,1,0,1
exteroceptive,0.21523360500000008,True,asynchronous,0.45490298581199673,0.24770096510660589,1,0,1
exteroceptive,0.19371024450000007,True,asynchronous,0.4593488029362686,0.32249098809214294,1,0,1
exteroceptive,0.17433922005000008,True,asynchronous,0.7234703642026844,0.0,1,0,1
exteroceptive,0.15690529804500009,True,asynchronous,0.39145346349167925,0.20079872088462605,1,0,1
exteroceptive,0.14121476824050008,False,asynchronous,0.416231154246998,0.285365988131892,1,0,1
exteroceptive,0.12709329141645007,False,asynchronous,0.4407314474321848,0.19617368478742395,1,0,1
exteroceptive,0.11438396227480506,True,asynchronous,0.41645571853786933,0.14196581215380227,1,0,1
exteroceptive,0.10294556604732455,True,asynchronous,0.46078438656888726,0.1917345068370178,1,0,1
exteroceptive,0.0926510094425921,True,asynchronous,0.40041572066815195,0.3068439153426752,1,0,1
exteroceptive,0.08338590849833288,False,asynchronous,0.43732800718193293,0.2693902733919228,1,0,1
exteroceptive,0.0750473176484996,True,asynchronous,0.5560199726994234,0.3073072144980975,1,0,1
exteroceptive,0.06754258588364964,False,asynchronous,0.5865373351894326,0.21587018434255822,1,0,1
exteroceptive,0.06078832729528468,False,asynchronous,0.6433343774849878,0.04745964131841854,1,0,1
exteroceptive,0.05470949456575622,True,asynchronous,0.4382459870975478,0.23021111089333984,1,0,1
exteroceptive,0.0492385451091806,True,asynchronous,0.38285954752310236,0.17178392876318543,1,0,1
exteroceptive,0.04431469059826254,True,synchronous,0.48706076654509417,0.3657510034866493,1,0,1
exteroceptive,0.039883221538436285,False,asynchronous,0.5678768998286247,0.1195571106269391,1,0,1
exteroceptive,0.03589489938459266,False,synchronous,0.5038407036717946,0.13594586739760753,1,0,1
exteroceptive,0.032305409446133394,True,asynchronous,0.4365180592397312,0.05642959936630665,1,0,1
exteroceptive,0.029074868501520055,False,asynchronous,0.5095695787005926,0.12984968455359924,1,0,1
exteroceptive,0.02616738165136805,True,asynchronous,0.6642477149991799,0.2829265422009206,1,0,1
exteroceptive,0.023550643486231246,True,asynchronous,0.6054304748287752,0.2198821553257044,1,0,1
exteroceptive,0.021195579137608122,False,asynchronous,0.5288653491801386,0.16204522735115306,1,0,1
exteroceptive,0.01907602122384731,True,synchronous,0.5133198651302837,0.3254747125537877,1,0,1
exteroceptive,0.01716841910146258,False,asynchronous,0.5739077787620193,0.00707998948802796,1,0,1
exteroceptive,0.015451577191316321,False,asynchronous,0.601083686711505,0.09879996015480962,1,0,1
exteroceptive,0.01390641947218469,True,asynchronous,0.4280908646257086,0.07245222789328881,1,0,1
exteroceptive,0.012515777524966222,True,asynchronous,0.42699460164956715,0.2337771876688683,1,0,1
exteroceptive,0.0112641997724696,False,asynchronous,0.3428888380177472,0.049621053828892175,1,0,1
exteroceptive,0.010137779795222639,True,asynchronous,0.43099086518748553,0.0971834125430039,1,0,1
exteroceptive,0.01,False,asynchronous,0.38648030243886033,0.0,1,0,1
exteroceptive,0.01,False,asynchronous,0.439878344543793,0.1571267056035608,1,0,1
exteroceptive,0.01,True,asynchronous,0.4399077078418259,0.0,1,0,1
exteroceptive,0.01,True,synchronous,0.5468500247147433,0.3126516780728929,1,0,1
exteroceptive,0.01,True,asynchronous,0.5207474892165703,0.19349448590259585,1,0,1
exteroceptive,0.01,True,asynchronous,0.578078305325144,0.30477322156342357,1,0,1
exteroceptive,0.01,False,synchronous,0.4435691536010071,0.19967179789738074,1,0,1
exteroceptive,0.01,True,asynchronous,0.47282992958533093,0.20060397222126577,1,0,1
exteroceptive,0.01,True,asynchronous,0.5386666302306655,0.08885619151415514,1,0,1
exteroceptive,0.01,True,synchronous,0.3610695293528136,0.16210382299320278,1,0,1
exteroceptive,0.01,False,asynchronous,0.36539499422516053,0.18482898203021123,1,0,1
exteroceptive,0.01,False,asynchronous,0.46554847242196,0.07227799476407683,1,0,1
exteroceptive,0.01,False,asynchronous,0.4086068820827839,0.2637579714230288,2,0,1
exteroceptive,0.01,True,synchronous,0.6776480433991489,0.3274817482900119,2,0,1
exteroceptive,0.01,True,asynchronous,0.5106201528794241,0.0,2,0,1
exteroceptive,0.01,True,asynchronous,0.5910902124690154,0.1702067418655213,2,0,1
exteroceptive,0.01,False,asynchronous,0.49621828587771954,0.20295970925899784,2,0,1
exteroceptive,0.01,True,asynchronous,0.30938252967321483,0.23965473761943235,2,0,1
exteroceptive,0.01,False,asynchronous,0.45088815669920385,0.33769842736187405,2,0,1
exteroceptive,0.01,True,asynchronous,0.49243431632829,0.02083003951943066,2,0,1
exteroceptive,0.01,True,asynchronous,0.5139971753854827,0.08839101061051423,2,0,1
exteroceptive,0.01,True,asynchronous,0.4965681789423491,0.14245041071122705,2,0,1
exteroceptive,0.01,True,synchronous,0.43803302805271993,0.16356050196134292,2,0,1
exteroceptive,0.01,True,asynchronous,0.5490522213976875,0.0,2,0,1
exteroceptive,0.01,False,asynchronous,0.46292322844066996,0.12873727568014598,2,0,1
exteroceptive,0.01,True,asynchronous,0.4804221418019455,0.0,2,0,1
exteroceptive,0.01,False,asynchronous,0.49139535132935,0.13183237905770834,2,0,1
exteroceptive,0.01,True,asynchronous,0.5080283926098572,0.21239352114404692,2,0,1
exteroceptive,0.01,False,asynchronous,0.45713284534589277,0.2308255209128734,2,0,1
exteroceptive,0.01,False,asynchronous,0.6051756211006293,0.21352905973522177,2,0,1
exteroceptive,0.01,False,asynchronous,0.4502920801907154,0.19730862296979276,2,0,1
exteroceptive,0.01,False,asynchronous,0.4621581365310545,0.2312467084719194,2,0,1
exteroceptive,0.01,False,asynchronous,0.3795594553464011,0.058893547884500366,2,0,1
exteroceptive,0.01,True,asynchronous,0.47948107195313405,0.2669216400150176,2,0,1
exteroceptive,0.01,True,synchronous,0.4826918453682119,0.21219027328619866,2,0,1
exteroceptive,0.01,True,asynchronous,0.5604257726871189,0.11928108000557552,2,0,1
exteroceptive,0.01,True,synchronous,0.3711147526854251,0.15350113678152685,2,0,1
exteroceptive,0.01,False,asynchronous,0.49367956773342053,0.17593644208305764,2,0,1
exteroceptive,0.01,True,asynchronous,0.2843252051526402,0.15871913081350827,2,0,1
exteroceptive,0.01,False,asynchronous,0.558372710491247,0.1770529964897286,2,0,1
exteroceptive,0.01,True,asynchronous,0.5513872666764953,0.20059798291819908,2,0,1
exteroceptive,0.01,False,asynchronous,0.6692481043427609,0.012759346043788422,2,0,1
exteroceptive,0.01,False,asynchronous,0.4889017526431585,0.21123319646844516,2,0,1
exteroceptive,0.01,False,asynchronous,0.4596811274368351,0.08946843130593987,2,0,1
exteroceptive,0.01,True,asynchronous,0.5009934180826909,0.2758964269485957,2,0,1
exteroceptive,0.01,False,asynchronous,0.5028259086735419,0.25552728936603336,2,0,1
exteroceptive,0.01,False,synchronous,0.4794613776452002,0.30555008516264076,2,0,1
exteroceptive,0.01,False,asynchronous,0.34091601356743695,0.3012878553759797,2,0,1
exteroceptive,0.01,False,asynchronous,0.393181815265446,0.0,2,0,1
exteroceptive,0.01,False,asynchronous,0.5293779023627384,0.35191088301806545,2,0,1
exteroceptive,0.01,True,asynchronous,0.40480806046530754,0.12134956630696779,2,0,1
exteroceptive,0.01,True,asynchronous,0.4355047962435883,0.1687385963287784,2,0,1
exteroceptive,0.01,True,asynchronous,0.5602495793315816,0.11951440965808277,2,0,1
exteroceptive,0.01,False,asynchronous,0.23532727928296093,0.10717933663931953,2,0,1
exteroceptive,0.01,True,asynchronous,0.6218088178902171,0.0,2,0,1
exteroceptive,0.01,True,asynchronous,0.522344509442241,0.0873199376006445,2,0,1
exteroceptive,0.01,True,asynchronous,0.5940042782877576,0.06952162924346846,2,0,1
exteroceptive,0.01,True,asynchronous,0.5085335297613806,0.27390433368120126,2,0,1
exteroceptive,0.01,True,synchronous,0.5711635424838128,0.29963056031719504,2,0,1
exteroceptive,0.01,False,asynchronous,0.4234299221628801,0.20956813486603415,2,0,1
exteroceptive,0.01,True,asynchronous,0.5165543999169648,0.26448467022689776,2,0,1
exteroceptive,0.01,False,asynchronous,0.492444941532562,0.23522464511442537,2,0,1
interoceptive,0.01,True,asynchronous,0.5352681765761872,0.16503780289352202,2,0,1
interoceptive,0.01,False,asynchronous,0.46138804898752694,0.0830592729875223,2,0,1
interoceptive,0.01,False,asynchronous,0.44954513506296895,0.0922903487191884,2,0,1
interoceptive,0.01,False,asynchronous,0.2951448152508252,0.013854731865213722,2,0,1
interoceptive,0.01,False,asynchronous,0.5930702315467802,0.055354562770740454,2,0,1
interoceptive,0.01,False,asynchronous,0.489641041384011,0.09205041210070834,2,0,1
interoceptive,0.01,True,asynchronous,0.4410207998039713,0.06096803433618794,2,0,1
interoceptive,0.01,True,synchronous,0.5012700037278048,0.04348934711890684,2,0,1
interoceptive,0.01,True,synchronous,0.46381364276109827,0.09479727248526078,2,0,1
interoceptive,0.01,False,asynchronous,0.6291298651335354,0.11779708425564954,2,0,1
interoceptive,0.01,True,asynchronous,0.4858990223762154,0.012173065893683957,2,0,1
interoceptive,0.01,True,asynchronous,0.5138381198116847,0.14972656417969582,2,0,1
interoceptive,0.01,True,asynchronous,0.672813015221679,0.038728138410067565,2,0,1
interoceptive,0.01,False,asynchronous,0.3371080415431241,0.0,2,0,1
interoceptive,0.01,True,synchronous,0.40900644496510896,0.21328794402918616,2,0,1
interoceptive,0.01,False,asynchronous,0.5248018989023681,0.0,2,0,1
interoceptive,0.01,False,asynchronous,0.6433344381898398,0.1537366049392665,2,0,1
interoceptive,0.01,False,asynchronous,0.4334121923183582,0.03762769417079118,2,0,1
interoceptive,0.01,True,asynchronous,0.5045791502936329,0.2872462761807029,2,0,1
interoceptive,0.01,False,asynchronous,0.581903829316775,0.14375128282099398,2,0,1
interoceptive,0.01,False,asynchronous,0.5433786059986493,0.03347960261959595,2,0,1
interoceptive,0.01,True,asynchronous,0.6284392721571733,0.17633006488709074,2,0,1
interoceptive,0.01,True,asynchronous,0.3854085979557156,0.0,2,0,1
interoceptive,0.01,True,asynchronous,0.5327294394432927,0.0,2,0,1
interoceptive,0.01,False,asynchronous,0.5465695185289038,0.08195786244323426,2,0,1
interoceptive,0.01,False,asynchronous,0.4731064262240319,0.02407848518333349,2,0,1
interoceptive,0.01,True,asynchronous,0.4971279217956119,0.0,2,0,1
interoceptive,0.01,True,asynchronous,0.5579189713367597,0.2536082311677402,2,0,1
interoceptive,0.01,False,asynchronous,0.35083896945057597,0.14176625656820513,2,0,1
interoceptive,0.01,True,asynchronous,0.4761432742840303,0.09074120240517974,2,0,1
interoceptive,0.01,True,asynchronous,0.49279799148407066,0.18384146867391093,2,0,1
interoceptive,0.01,True,asynchronous,0.3875592462499434,0.21851463660817239,2,0,1
interoceptive,0.01,True,asynchronous,0.44398349508687834,0.07492064098678951,2,0,1
interoceptive,0.01,True,asynchronous,0.6863232924876113,0.08195183900937587,2,0,1
interoceptive,0.01,True,asynchronous,0.41501027927895995,0.11167421174086763,2,0,1
interoceptive,0.01,False,asynchronous,0.8517154789714192,0.048699397826202806,2,0,1
interoceptive,0.01,True,asynchronous,0.5208570800362555,0.08743591499670983,2,0,1
interoceptive,0.01,True,asynchronous,0.3764430430025187,0.00890206104228719,2,0,1
interoceptive,0.01,True,asynchronous,0.6228137200812662,0.13477973022535222,2,0,1
interoceptive,0.01,False,asynchronous,0.41093843137963687,0.0,2,0,1
interoceptive,0.01,True,asynchronous,0.5485274733471311,0.15418388714859535,2,0,1
interoceptive,0.01,True,asynchronous,0.3309971480017758,0.3308533896247735,2,0,1
interoceptive,0.01,True,asynchronous,0.5208507456225958,0.22900329325343965,2,0,1
interoceptive,0.01,True,asynchronous,0.5086158370630095,0.16241989863103862,2,0,1
interoceptive,0.01,False,asynchronous,0.48021161683763786,0.16254570552154696,2,0,1
interoceptive,0.01,False,asynchronous,0.5149380556668881,0.148915879105323,2,0,1
interoceptive,0.01,False,asynchronous,0.3720082280377816,0.05934732961317748,2,0,1
interoceptive,0.01,True,synchronous,0.49353274823572424,0.16389237733935963,2,0,1
interoceptive,0.01,False,asynchronous,0.3991494200781125,0.038901200620464704,2,0,1
interoceptive,0.01,True,asynchronous,0.4635338475492377,0.08330380695545053,2,0,1
control,0.01,False,synchronous,0.42279699839056895,0.16089407721097965,2,0,1
control,0.01,False,asynchronous,0.44734705281404863,0.1710020293544064,2,0,1
control,0.01,False,asynchronous,0.5801841901454916,0.1743156341135319,2,0,1
control,0.01,True,asynchronous,0.354434068857122,0.26088115828211356,2,0,1
control,0.01,False,asynchronous,0.5560327532820969,0.35166607211466594,2,0,1
control,0.01,False,asynchronous,0.6699475078576538,0.12288431356121643,2,0,1
control,0.01,False,asynchronous,0.669077831280332,0.21148009243420585,2,0,1
control,0.01,False,asynchronous,0.48477809479336853,0.2642945109409148,2,0,1
control,0.01,True,asynchronous,0.4943642374488993,0.3317983681141017,2,0,1
control,0.01,True,asynchronous,0.5803923929580516,0.22542709151911094,2,0,1
control,0.01,False,asynchronous,0.41935737589867933,0.16268401082644038,2,0,1
control,0.01,True,synchronous,0.4147278255256622,0.13913593727717988,2,0,1
control,0.01,False,asynchronous,0.5630674949735283,0.2915655741575415,2,0,1
control,0.01,False,asynchronous,0.6528352211067104,0.14033496207066465,2,0,1
control,0.01,True,asynchronous,0.5355172062908032,0.18509558795665562,2,0,1
control,0.01,False,asynchronous,0.3395101524367388,0.18198468302126047,2,0,1
control,0.01,True,asynchronous,0.5884987004925606,0.0966817624693515,2,0,1
control,0.01,False,asynchronous,0.5025699361902499,0.2495211257960736,2,0,1
control,0.01,False,asynchronous,0.29224863286771857,0.22752503963678392,2,0,1
control,0.01,False,asynchronous,0.4708996950919424,0.3043531344312902,2,0,1
control,0.01,True,asynchronous,0.4884694419030399,0.31213720487774266,2,0,1
control,0.01,False,asynchronous,0.4872883519155779,0.2824329630159387,2,0,1
control,0.01,True,synchronous,0.5172436310813796,0.38758566156211083,2,0,1
control,0.01,True,synchronous,0.5361443523029412,0.2757976716546636,2,0,1
control,0.01,False,synchronous,0.5120801929795133,0.3535753437158152,2,0,1
control,0.01,False,asynchronous,0.3777536866468649,0.03048410514660277,2,0,1
control,0.01,True,asynchronous,0.5266222907924469,0.07805278292037246,2,0,1
control,0.01,True,asynchronous,0.4117572927363129,0.2553094648785127,2,0,1
control,0.01,True,asynchronous,0.4447687791988074,0.09844940929636778,2,0,1
control,0.01,True,asynchronous,0.5901124158107008,0.17602957218794008,2,0,1
control,0.01,True,synchronous,0.4381004443373803,0.24598099411462004,2,0,1
control,0.01,False,asynchronous,0.5713268500635165,0.11667181528033384,2,0,1
control,0.01,True,asynchronous,0.41194870411169743,0.09568473332939872,2,0,1
control,0.01,False,asynchronous,0.25094542783176127,0.3178645772494806,2,0,1
control,0.01,True,asynchronous,0.6617276700695749,0.3124280652115627,2,0,1
control,0.01,True,asynchronous,0.5430290891459235,0.26386240724331644,2,0,1
control,0.01,True,asynchronous,0.44379110818211187,0.3338901394477475,2,0,1
control,0.01,False,asynchronous,0.47574556516476496,0.3191675760538084,2,0,1
control,0.01,True,asynchronous,0.49104655265896047,0.17512771008566871,2,0,1
control,0.01,True,asynchronous,0.6922496828661627,0.3257694840941033,2,0,1
control,0.01,False,asynchronous,0.726933191025325,0.48245728473857685,2,0,1
control,0.01,False,asynchronous,0.4651649377149585,0.17796368410775062,2,0,1
control,0.01,True,asynchronous,0.5604361249212518,0.33430087463846275,2,0,1
control,0.01,False,asynchronous,0.6385511315210955,0.27854279281869293,2,0,1
control,0.01,True,asynchronous,0.5795751680628984,0.1271871400831457,2,0,1
control,0.01,True,asynchronous,0.20155191616628698,0.45904110310973645,2,0,1
control,0.01,True,asynchronous,0.6079554831271154,0.30456921615966664,2,0,1
control,0.01,False,synchronous,0.3965433261484015,0.3652314085397794,2,0,1
control,0.01,False,synchronous,0.38003337781307117,0.14987248607851672,2,0,1
control,0.01,False,asynchronous,0.46512459078802415,0.480902866300291,2,0,1
interoceptive,0.01,True,asynchronous,0.50368657099953,0.02286040495945328,3,0,1
interoceptive,0.01,False,asynchronous,0.4723428883083221,0.13397450588098042,3,0,1
interoceptive,0.01,False,asynchronous,0.4013938797520108,0.19769634361676985,3,0,1
interoceptive,0.01,False,synchronous,0.5802059197893122,0.1829770191784541,3,0,1
interoceptive,0.01,True,synchronous,0.39209343554938714,0.18123117040561293,3,0,1
interoceptive,0.01,False,asynchronous,0.25898554345057806,0.19178491541975434,3,0,1
interoceptive,0.01,True,asynchronous,0.5423393398092308,0.10306706037830965,3,0,1
interoceptive,0.01,False,asynchronous,0.5548567403932697,0.0,3,0,1
interoceptive,0.01,False,asynchronous,0.5388194269978037,0.2658649318707143,3,0,1
interoceptive,0.01,True,asynchronous,0.6742401853611749,0.11630411837918103,3,0,1
interoceptive,0.01,False,asynchronous,0.6903094023777026,0.10582442347047911,3,0,1
interoceptive,0.01,True,asynchronous,0.43848511312678806,0.06525955304905709,3,0,1
interoceptive,0.01,False,asynchronous,0.5351654670005702,0.0,3,0,1
interoceptive,0.01,False,asynchronous,0.5600137463173229,0.06871542879089741,3,0,1
interoceptive,0.01,True,synchronous,0.6353009076805965,0.11702557454699544,3,0,1
interoceptive,0.01,True,asynchronous,0.6475792001504225,0.00952913195604782,3,0,1
interoceptive,0.01,False,asynchronous,0.3850411075844566,0.14282535079041403,3,0,1
interoceptive,0.01,True,asynchronous,0.5071516061188648,0.0,3,0,1
interoceptive,0.01,False,asynchronous,0.4815164358647728,0.33739327590360674,3,0,1
interoceptive,0.01,True,asynchronous,0.5465210493220495,0.0,3,0,1
interoceptive,0.01,False,asynchronous,0.38411338122670774,0.1656789574545952,3,0,1
interoceptive,0.01,False,asynchronous,0.5945802090117268,0.07826260770969341,3,0,1
interoceptive,0.01,False,asynchronous,0.5483066995786102,0.0,3,0,1
interoceptive,0.01,False,asynchronous,0.523241588173115,0.02612791350371639,3,0,1
interoceptive,0.01,False,asynchronous,0.39858122081957376,0.22021144870798798,3,0,1
interoceptive,0.01,True,asynchronous,0.4971720309771991,0.11911205064864744,3,0,1
interoceptive,0.01,False,asynchronous,0.5091695171888292,0.0,3,0,1
interoceptive,0.01,True,synchronous,0.5713668174970825,0.14448544982370454,3,0,1
interoceptive,0.01,True,asynchronous,0.3460897397618586,0.16368975674447006,3,0,1
interoceptive,0.01,True,asynchronous,0.5239511079746728,0.013282842979811485,3,0,1
interoceptive,0.01,True,synchronous,0.5222938322862226,0.15229364565370054,3,0,1
interoceptive,0.01,False,asynchronous,0.575997950035772,0.10559994644087352,3,0,1
interoceptive,0.01,True,asynchronous,0.512172963310168,0.0,3,0,1
interoceptive,0.01,True,asynchronous,0.39945972991667855,0.0,3,0,1
interoceptive,0.01,False,asynchronous,0.4067215299093826,0.18166094898515966,3,0,1
interoceptive,0.01,False,asynchronous,0.5903754631157244,0.0783146807760492,3,0,1
interoceptive,0.01,True,asynchronous,0.5458250239451823,0.15771585034020225,3,0,1
interoceptive,0.01,False,asynchronous,0.5734294753827586,0.0,3,0,1
interoceptive,0.01,True,asynchronous,0.3806759356511941,0.06805389942372167,3,0,1
interoceptive,0.01,False,asynchronous,0.5357435374249836,0.00013852680960518837,3,0,1
interoceptive,0.01,True,asynchronous,0.6844477304277651,0.0746245600432037,3,0,1
interoceptive,0.01,False,asynchronous,0.5990390250935201,0.14641300204375834,3,0,1
interoceptive,0.01,True,asynchronous,0.57643595874659,0.14841555264659784,3,0,1
interoceptive,0.01,False,asynchronous,0.6224668200283031,0.0,3,0,1
interoceptive,0.01,False,synchronous,0.3816698968728062,0.2509709912317764,3,0,1
interoceptive,0.01,True,asynchronous,0.42210708086626625,0.06296952767553386,3,0,1
interoceptive,0.01,True,asynchronous,0.6457111438102138,0.0,3,0,1
interoceptive,0.01,True,asynchronous,0.6785849122622819,0.0,3,0,1
interoceptive,0.01,False,asynchronous,0.5370365091610398,0.1403999630904365,3,0,1
interoceptive,0.01,False,asynchronous,0.605926227276541,0.0,3,0,1
control,0.01,False,asynchronous,0.4975478635882497,0.10304503532395282,3,0,1
control,0.01,False,asynchronous,0.44979234332786855,0.2825365044645376,3,0,1
control,0.01,True,asynchronous,0.35216372713550803,0.2354411776479321,3,0,1
control,0.01,False,asynchronous,0.4395909271843651,0.32860144850308093,3,0,1
control,0.01,False,synchronous,0.42931009011888555,0.27628654615815285,3,0,1
control,0.01,True,asynchronous,0.4852053670960564,0.1686714941018084,3,0,1
control,0.01,True,asynchronous,0.43945653902649495,0.34659121488898337,3,0,1
control,0.01,True,asynchronous,0.3613132667117061,0.273077911832302,3,0,1
control,0.01,True,synchronous,0.528368575687581,0.3787336254141769,3,0,1
control,0.01,False,synchronous,0.7698289293903505,0.3020323574129923,3,0,1
control,0.01,True,asynchronous,0.4993346953150747,0.2890445086191872,3,0,1
control,0.01,False,asynchronous,0.5408236859090652,0.12734786738806475,3,0,1
control,0.01,False,asynchronous,0.23590594963982506,0.0,3,0,1
control,0.01,True,asynchronous,0.42492077872610035,0.2209743330180538,3,0,1
control,0.01,True,asynchronous,0.6808309176510791,0.14879752125770906,3,0,1
control,0.01,False,synchronous,0.49039810522437033,0.22868335060540093,3,0,1
control,0.01,True,asynchronous,0.34230418742294766,0.1506313688592614,3,0,1
control,0.01,False,asynchronous,0.5134288379952727,0.054426609610137844,3,0,1
control,0.01,True,asynchronous,0.4682620042645685,0.28165161228127544,3,0,1
control,0.01,True,asynchronous,0.5725226920792016,0.18489286144871245,3,0,1
control,0.01,False,asynchronous,0.369786635668425,0.19488326424875532,3,0,1
control,0.01,False,asynchronous,0.4237148429088604,0.13368059488850054,3,0,1
control,0.01,False,synchronous,0.7042901949010035,0.22948539764863532,3,0,1
control,0.01,True,synchronous,0.4737319348063139,0.20758632816749759,3,0,1
control,0.01,True,synchronous,0.35220751259878774,0.34406938901932116,3,0,1
control,0.01,True,asynchronous,0.3242806501225243,0.2720215327942146,3,0,1
control,0.01,False,synchronous,0.5248050498714522,0.1098238097833607,3,0,1
control,0.01,False,synchronous,0.4275649548659142,0.20838954587998954,3,0,1
control,0.01,False,synchronous,0.5218884130601066,0.33129253230049516,3,0,1
control,0.01,True,asynchronous,0.48239551627402905,0.27868295259856934,3,0,1
control,0.01,True,synchronous,0.577891773524962,0.36001238270003555,3,0,1
control,0.01,False,synchronous,0.6668460790852562,0.29168267145155047,3,0,1
control,0.01,True,synchronous,0.6105470151137544,0.1368194180254494,3,0,1
control,0.01,True,asynchronous,0.4921577455423949,0.32029994173716625,3,0,1
control,0.01,True,synchronous,0.4283514121093933,0.5504897464188867,3,0,1
control,0.01,False,asynchronous,0.48063847382377395,0.10296945994053672,3,0,1
control,0.01,True,asynchronous,0.44740354281448225,0.3184613664055833,3,0,1
control,0.01,True,asynchronous,0.47326854545756974,0.18431504123420764,3,0,1
control,0.01,True,asynchronous,0.5899551895934497,0.3075874074516506,3,0,1
control,0.01,False,asynchronous,0.502531512701971,0.14172637076597067,3,0,1
control,0.01,True,synchronous,0.438914884644494,0.2640208233202193,3,0,1
control,0.01,False,asynchronous,0.5008716247011804,0.04413549148056911,3,0,1
control,0.01,False,asynchronous,0.5298930511495471,0.46832448139638483,3,0,1
control,0.01,True,asynchronous,0.43737711739226043,0.2927936461549533,3,0,1
control,0.01,False,synchronous,0.44095535793435675,0.2068531798860513,3,0,1
control,0.01,True,asynchronous,0.5277982004187151,0.4113139834729541,3,0,1
control,0.01,True,asynchronous,0.5736814269296678,0.13214916410267197,3,0,1
control,0.01,False,asynchronous,0.37733346003842255,0.27535723143736507,3,0,1
control,0.01,False,asynchronous,0.5787248654196326,0.08924001638016102,3,0,1
control,0.01,True,synchronous,0.748173100335566,0.299595853344063,3,0,1
exteroceptive,0.01,False,asynchronous,0.5169382183569514,0.20617509422735017,3,0,1
exteroceptive,0.01,True,asynchronous,0.29496028916457284,0.10183347522176148,3,0,1
exteroceptive,0.01,True,asynchronous,0.4082827721062101,0.17647452022136315,3,0,1
exteroceptive,0.01,True,synchronous,0.4977129314912389,0.30790242620176267,3,0,1
exteroceptive,0.01,False,synchronous,0.5250954089704138,0.24012539557424362,3,0,1
exteroceptive,0.01,True,asynchronous,0.43348940025865607,0.16816836241241837,3,0,1
exteroceptive,0.01,True,asynchronous,0.2687203731013812,0.07425727140610323,3,0,1
exteroceptive,0.01,False,synchronous,0.5159041980760056,0.1227842680250118,3,0,1
exteroceptive,0.01,True,asynchronous,0.6060140025884561,0.15028039615307728,3,0,1
exteroceptive,0.01,False,asynchronous,0.5682806452164051,0.21349031234492832,3,0,1
exteroceptive,0.01,True,synchronous,0.6728434637230916,0.24374739389736685,3,0,1
exteroceptive,0.01,False,asynchronous,0.3513435087742316,0.08535903910158942,3,0,1
exteroceptive,0.01,False,synchronous,0.41153912004174126,0.1892611526317115,3,0,1
exteroceptive,0.01,True,asynchronous,0.46653441188935774,0.07590326454989044,3,0,1
exteroceptive,0.01,False,asynchronous,0.4640017598624862,0.13762151696647668,3,0,1
exteroceptive,0.01,False,asynchronous,0.46525229441731314,0.20233943356222647,3,0,1
exteroceptive,0.01,False,asynchronous,0.40843494368213856,0.14872783629109748,3,0,1
exteroceptive,0.01,False,asynchronous,0.4818360019999118,0.12064693984993954,3,0,1
exteroceptive,0.01,False,asynchronous,0.5762825638044358,0.09106164993925367,3,0,1
exteroceptive,0.01,False,asynchronous,0.702346877539479,0.33180256814989084,3,0,1
exteroceptive,0.01,True,asynchronous,0.8156263370452961,0.3746134713647456,3,0,1
exteroceptive,0.01,False,asynchronous,0.577070039009228,0.19878582309496584,3,0,1
exteroceptive,0.01,True,synchronous,0.6009218511346059,0.2163379714781069,3,0,1
exteroceptive,0.01,True,synchronous,0.5226447653537,0.224702008549101,3,0,1
exteroceptive,0.01,False,asynchronous,0.44128268513397745,0.11398919288815113,3,0,1
exteroceptive,0.01,False,asynchronous,0.5834524693297989,0.26402200294813954,3,0,1
exteroceptive,0.01,True,synchronous,0.42943313137938416,0.1343348529713418,3,0,1
exteroceptive,0.01,False,asynchronous,0.4198906999763954,0.15820076848334055,3,0,1
exteroceptive,0.01,False,synchronous,0.5026384125986104,0.3120917253852111,3,0,1
exteroceptive,0.01,False,asynchronous,0.536123118780228,0.2454066553257918,3,0,1
exteroceptive,0.01,True,asynchronous,0.41673685313845055,0.0,3,0,1
exteroceptive,0.01,False,synchronous,0.45886202132211046,0.17607979243027,3,0,1
exteroceptive,0.01,True,asynchronous,0.5758362978776662,0.12859692028276953,3,0,1
exteroceptive,0.01,False,asynchronous,0.5470071131025434,0.24727925394934874,3,0,1
exteroceptive,0.01,True,asynchronous,0.5057028572594497,0.2074628557754446,3,0,1
exteroceptive,0.01,True,asynchronous,0.5191434635831343,0.13109493877428915,3,0,1
exteroceptive,0.01,True,asynchronous,0.42724181357747126,0.14716842155338966,3,0,1
exteroceptive,0.01,True,asynchronous,0.5318568160822233,0.19974637850403393,3,0,1
exteroceptive,0.01,True,asynchronous,0.3599751718806178,0.10119232195553526,3,0,1
exteroceptive,0.01,False,asynchronous,0.39163510544489,0.18086435404507029,3,0,1
exteroceptive,0.01,False,asynchronous,0.35370685435978394,0.10536212008244791,3,0,1
exteroceptive,0.01,False,asynchronous,0.5613155379217666,0.4119939143730522,3,0,1
exteroceptive,0.01,False,asynchronous,0.40462792354290894,0.23223587486496766,3,0,1
exteroceptive,0.01,False,asynchronous,0.43849505611740874,0.13847906582331623,3,0,1
exteroceptive,0.01,False,asynchronous,0.3733010298770018,0.06909215298770668,3,0,1
exteroceptive,0.01,True,asynchronous,0.5340444038323938,0.07671846684875823,3,0,1
exteroceptive,0.01,False,asynchronous,0.4307860330414788,0.15042133913186623,3,0,1
exteroceptive,0.01,False,asynchronous,0.5602028926784397,0.1781829324758219,3,0,1
exteroceptive,0.01,False,asynchronous,0.48957086361577534,0.015256997455042637,3,0,1
exteroceptive,0.01,False,asynchronous,0.42986150843326965,0.18999840051399564,3,0,1
exteroceptive,0.01,False,asynchronous,0.4089992886461679,0.05926315043796122,4,0,1
exteroceptive,0.01,True,asynchronous,0.4976076284787108,0.24363091045758728,4,0,1
exteroceptive,0.01,True,synchronous,0.5285786768062983,0.2808398553328938,4,0,1
exteroceptive,0.01,False,synchronous,0.4907944301395571,0.11536959206274425,4,0,1
exteroceptive,0.01,True,asynchronous,0.4822563169186211,0.2523653096204186,4,0,1
exteroceptive,0.01,True,asynchronous,0.468778988764593,0.19350469760219174,4,0,1
exteroceptive,0.01,False,asynchronous,0.6312205062345327,0.2663755041419815,4,0,1
exteroceptive,0.01,False,asynchronous,0.4721027442297454,0.13167540308451184,4,0,1
exteroceptive,0.01,True,asynchronous,0.44325447238832916,0.16016101051844508,4,0,1
exteroceptive,0.01,False,asynchronous,0.5242945388418712,0.23194437928119455,4,0,1
exteroceptive,0.01,True,asynchronous,0.41435663991909616,0.3020181890372592,4,0,1
exteroceptive,0.01,False,asynchronous,0.6204217219428007,0.04431405543218872,4,0,1
exteroceptive,0.01,False,asynchronous,0.2910050613579998,0.09199363181271565,4,0,1
exteroceptive,0.01,False,asynchronous,0.5405434122732061,0.13315519231037817,4,0,1
exteroceptive,0.01,True,asynchronous,0.5023708736261256,0.13711286748970983,4,0,1
exteroceptive,0.01,True,asynchronous,0.46041624821323546,0.10014619585163292,4,0,1
exteroceptive,0.01,False,asynchronous,0.5266128611916499,0.07121491660759216,4,0,1
exteroceptive,0.01,False,asynchronous,0.47581807887544153,0.2360536885267197,4,0,1
exteroceptive,0.01,False,asynchronous,0.5774990367805636,0.1421744949848477,4,0,1
exteroceptive,0.01,False,synchronous,0.48586599219739135,0.19928547836955093,4,0,1
exteroceptive,0.01,True,asynchronous,0.47104344401867587,0.23478747144807474,4,0,1
exteroceptive,0.01,False,asynchronous,0.3661416207290493,0.0,4,0,1
exteroceptive,0.01,True,asynchronous,0.5780791785585355,0.019338075801377613,4,0,1
exteroceptive,0.01,False,asynchronous,0.3756504952192678,0.05968252354432238,4,0,1
exteroceptive,0.01,True,asynchronous,0.5304411514153038,0.15673084936275364,4,0,1
exteroceptive,0.01,False,asynchronous,0.43491741259071,0.1833302474764982,4,0,1
exteroceptive,0.01,False,synchronous,0.4103688231661236,0.3239868715269581,4,0,1
exteroceptive,0.01,True,asynchronous,0.5330026225402953,0.21021390563780123,4,0,1
exteroceptive,0.01,True,asynchronous,0.4469722908388422,0.20647858787034828,4,0,1
exteroceptive,0.01,False,asynchronous,0.5184701919312905,0.07675055796479155,4,0,1
exteroceptive,0.01,True,asynchronous,0.4513868736728166,0.23499558276384375,4,0,1
exteroceptive,0.01,False,synchronous,0.35866960763639844,0.19176437848833072,4,0,1
exteroceptive,0.01,False,asynchronous,0.488423042549366,0.3814162600957261,4,0,1
exteroceptive,0.01,False,asynchronous,0.38796314071911586,0.009278915500250007,4,0,1
exteroceptive,0.01,True,synchronous,0.3524756100603972,0.17493346937649287,4,0,1
exteroceptive,0.01,False,asynchronous,0.48096677332944876,0.04445633215785408,4,0,1
exteroceptive,0.01,False,asynchronous,0.4284523860557047,0.03210645716436045,4,0,1
exteroceptive,0.01,False,asynchronous,0.5156337447689706,0.1924038389692077,4,0,1
exteroceptive,0.01,False,asynchronous,0.6338180590207018,0.09909190819722667,4,0,1
exteroceptive,0.01,False,asynchronous,0.5881300344741035,0.0957097987232187,4,0,1
exteroceptive,0.01,True,synchronous,0.6164455441932596,0.30769228411532434,4,0,1
exteroceptive,0.01,False,asynchronous,0.6504792869004516,0.2435936533707855,4,0,1
exteroceptive,0.01,False,asynchronous,0.36340523322515267,0.09513074231567514,4,0,1
exteroceptive,0.01,False,asynchronous,0.4748370138550203,0.2015170097815106,4,0,1
exteroceptive,0.01,True,synchronous,0.571619338142434,0.17722546620370647,4,0,1
exteroceptive,0.01,False,synchronous,0.5822726743133496,0.14571929345530404,4,0,1
exteroceptive,0.01,True,asynchronous,0.390638948158049,0.20871882257763355,4,0,1
exteroceptive,0.01,True,asynchronous,0.4011271089429218,0.17997893445501242,4,0,1
exteroceptive,0.01,True,asynchronous,0.6549547338420453,0.24363164933994486,4,0,1
exteroceptive,0.01,False,synchronous,0.4401074977251811,0.2967139498571242,4,0,1
interoceptive,0.01,True,asynchronous,0.5162137076834902,0.1337851426608494,4,0,1
interoceptive,0.01,True,asynchronous,0.62609185796402,0.08979290149636436,4,0,1
interoceptive,0.01,True,asynchronous,0.44455891407322135,0.07987765881080036,4,0,1
interoceptive,0.01,True,asynchronous,0.4717749663778102,0.14345525670455683,4,0,1
interoceptive,0.01,False,asynchronous,0.3632111738483343,0.19245214865354532,4,0,1
interoceptive,0.01,True,asynchronous,0.45875754005014285,0.07663508588789912,4,0,1
interoceptive,0.01,False,asynchronous,0.5451592729102963,0.11977637140141087,4,0,1
interoceptive,0.01,True,asynchronous,0.47998286408150015,0.02813550902786545,4,0,1
interoceptive,0.01,True,asynchronous,0.5123244291212311,0.0,4,0,1
interoceptive,0.01,False,asynchronous,0.4498107582896723,0.05859752753696869,4,0,1
interoceptive,0.01,True,asynchronous,0.5457440270991396,0.07465650262491279,4,0,1
interoceptive,0.01,True,asynchronous,0.41450711387030464,0.0,4,0,1
interoceptive,0.01,False,asynchronous,0.500917697497813,0.02571781223903149,4,0,1
interoceptive,0.01,True,asynchronous,0.4166512510027309,0.07500022016391863,4,0,1
interoceptive,0.01,True,synchronous,0.45882813902950187,0.22635817145780462,4,0,1
interoceptive,0.01,True,asynchronous,0.46863219240225723,0.0,4,0,1
interoceptive,0.01,True,asynchronous,0.4543140245525544,0.14379646922274814,4,0,1
interoceptive,0.01,False,asynchronous,0.506342351674466,0.09973365054275676,4,0,1
interoceptive,0.01,True,asynchronous,0.4135604062334511,0.043812668307752045,4,0,1
interoceptive,0.01,True,asynchronous,0.29566564696410264,0.0,4,0,1
interoceptive,0.01,False,asynchronous,0.5896603213818252,0.11400291544234681,4,0,1
interoceptive,0.01,False,asynchronous,0.31241063110876727,0.025069304135841464,4,0,1
interoceptive,0.01,False,asynchronous,0.4157659247129661,0.0,4,0,1
interoceptive,0.01,True,asynchronous,0.5178699064917733,0.06309662526455714,4,0,1
interoceptive,0.01,False,asynchronous,0.46171952624119206,0.25833165016497456,4,0,1
interoceptive,0.01,True,asynchronous,0.5117441986598287,0.03666441789464025,4,0,1
interoceptive,0.01,False,asynchronous,0.5263935155681858,0.05787342477829381,4,0,1
interoceptive,0.01,True,synchronous,0.5021526936803933,0.17699025843837612,4,0,1
interoceptive,0.01,True,asynchronous,0.6678490173786039,0.022392415072814573,4,0,1
interoceptive,0.01,True,asynchronous,0.5396929672053258,0.07117537962548816,4,0,1
interoceptive,0.01,False,asynchronous,0.3771789310477411,0.13748480699402638,4,0,1
interoceptive,0.01,False,asynchronous,0.611470360301784,0.10457906752565344,4,0,1
interoceptive,0.01,False,asynchronous,0.5404852560359411,0.06328481243224665,4,0,1
interoceptive,0.01,False,synchronous,0.3022763852642501,0.04558107804634835,4,0,1
interoceptive,0.01,False,asynchronous,0.4828842342454303,0.2760396484317091,4,0,1
interoceptive,0.01,False,asynchronous,0.48061088636685956,0.02549901367969038,4,0,1
interoceptive,0.01,False,synchronous,0.5505470841088899,0.08185464990913494,4,0,1
interoceptive,0.01,True,asynchronous,0.5047823451612726,0.06763761410834081,4,0,1
interoceptive,0.01,False,asynchronous,0.4241494647050618,0.0609406407249945,4,0,1
interoceptive,0.01,False,asynchronous,0.26783969779476613,0.2740817815848856,4,0,1
interoceptive,0.01,True,asynchronous,0.48108858801452214,0.12033713253511555,4,0,1
interoceptive,0.01,False,asynchronous,0.393987289732357,0.15592582175991143,4,0,1
interoceptive,0.01,False,asynchronous,0.5982482135116182,0.11523970385442217,4,0,1
interoceptive,0.01,False,asynchronous,0.5468188573998567,0.12139753083301931,4,0,1
interoceptive,0.01,True,asynchronous,0.3900455517480962,0.0,4,0,1
interoceptive,0.01,False,asynchronous,0.4477596832826344,0.0,4,0,1
interoceptive,0.01,False,asynchronous,0.5921259656090939,0.007318262295326117,4,0,1
interoceptive,0.01,True,asynchronous,0.37879414620308843,0.04308379394666743,4,0,1
interoceptive,0.01,False,asynchronous,0.4452800731277383,0.13208450920998233,4,0,1
interoceptive,0.01,True,asynchronous,0.6529382404404724,0.2031241880471223,4,0,1
control,0.01,False,synchronous,0.437962810738734,0.17116621274972563,4,0,1
control,0.01,False,asynchronous,0.4853621553302763,0.2770252569294782,4,0,1
control,0.01,True,synchronous,0.413898820407567,0.3856068208096341,4,0,1
control,0.01,True,asynchronous,0.30602180031828435,0.06248338368963688,4,0,1
control,0.01,True,asynchronous,0.44145524884697596,0.05458471240511653,4,0,1
control,0.01,True,asynchronous,0.5536547664974999,0.25380841660274595,4,0,1
control,0.01,False,asynchronous,0.4341223443999412,0.15012916997250625,4,0,1
control,0.01,False,asynchronous,0.4637525501264417,0.08281794774325607,4,0,1
control,0.01,True,asynchronous,0.4722122657652992,0.17107471228634225,4,0,1
control,0.01,False,synchronous,0.5499955083244129,0.27854290139251703,4,0,1
control,0.01,False,asynchronous,0.5332012846736645,0.3272420902133049,4,0,1
control,0.01,True,asynchronous,0.38971700488547817,0.16511624817268983,4,0,1
control,0.01,True,asynchronous,0.4766820483841529,0.22967689499351038,4,0,1
control,0.01,False,synchronous,0.5228783300440814,0.31598652665225163,4,0,1
control,0.01,True,asynchronous,0.6586904279910449,0.22416097738401478,4,0,1
control,0.01,False,asynchronous,0.45417854241589595,0.3435453944473258,4,0,1
control,0.01,False,synchronous,0.5128395533040438,0.39114509770867834,4,0,1
control,0.01,True,asynchronous,0.5031643500036728,0.282326986493224,4,0,1
control,0.01,True,asynchronous,0.27634017991299875,0.3001613967691144,4,0,1
control,0.01,False,asynchronous,0.33898684280999725,0.03502518240092581,4,0,1
control,0.01,False,asynchronous,0.6334852820237308,0.3855920388425558,4,0,1
control,0.01,False,asynchronous,0.5755615665265525,0.29927836998853885,4,0,1
control,0.01,False,synchronous,0.5504170176955734,0.3043008596741151,4,0,1
control,0.01,True,asynchronous,0.5067347995820815,0.11487824748291227,4,0,1
control,0.01,False,asynchronous,0.44460852753489644,0.13314767524987497,4,0,1
control,0.01,True,synchronous,0.4121003394264905,0.22090678947860212,4,0,1
control,0.01,True,asynchronous,0.4922085507418652,0.1585224357859519,4,0,1
control,0.01,True,asynchronous,0.5212302398994377,0.16677116876707454,4,0,1
control,0.01,True,asynchronous,0.5893328286551873,0.2929397967441224,4,0,1
control,0.01,True,asynchronous,0.37261399687084035,0.11349485722365649,4,0,1
control,0.01,False,asynchronous,0.5624574780474744,0.26658357384006676,4,0,1
control,0.01,False,synchronous,0.39109372223773214,0.23640374791531432,4,0,1
control,0.01,False,asynchronous,0.5615837462326573,0.2946078851997988,4,0,1
control,0.01,False,asynchronous,0.46168945264115335,0.28104972720612525,4,0,1
control,0.01,False,asynchronous,0.5282377091954542,0.3092208457519269,4,0,1
control,0.01,True,asynchronous,0.5498633775719157,0.3703884408580257,4,0,1
control,0.01,False,synchronous,0.5894346935516973,0.37108762470087886,4,0,1
control,0.01,False,asynchronous,0.47862116942474087,0.44124188089606486,4,0,1
control,0.01,False,asynchronous,0.35795644715286007,0.0450270343430762,4,0,1
control,0.01,False,asynchronous,0.5518812946986854,0.29858275304900783,4,0,1
control,0.01,True,asynchronous,0.5076422692499344,0.3626076243118219,4,0,1
control,0.01,True,asynchronous,0.3436807097282085,0.16775645573044534,4,0,1
control,0.01,True,asynchronous,0.4764233622816492,0.4352096069300023,4,0,1
control,0.01,False,asynchronous,0.3503856451331077,0.3600200269282512,4,0,1
control,0.01,False,synchronous,0.5398975176974771,0.3250755290471903,4,0,1
control,0.01,True,synchronous,0.4500295541107857,0.2403725654316702,4,0,1
control,0.01,False,asynchronous,0.4183389163220762,0.2711042748991743,4,0,1
control,0.01,False,asynchronous,0.5931409936661116,0.22913077910457383,4,0,1
control,0.01,True,asynchronous,0.49604485120540276,0.29215732509527936,4,0,1
control,0.01,False,asynchronous,0.5083938693235598,0.16311095380651125,4,0,1
exteroceptive,0.01,True,asynchronous,0.49229407392472097,0.027924203350102095,5,0,1
exteroceptive,0.01,False,asynchronous,0.44741297075335196,0.08072318242785986,5,0,1
exteroceptive,0.01,False,asynchronous,0.6072149780481596,0.279642696170886,5,0,1
exteroceptive,0.01,False,synchronous,0.5787405800796608,0.1105832299007222,5,0,1
exteroceptive,0.01,False,asynchronous,0.38482905957264296,0.13260753666551323,5,0,1
exteroceptive,0.01,False,asynchronous,0.48120032541754326,0.085997652464637,5,0,1
exteroceptive,0.01,True,asynchronous,0.47785715813432605,0.04636355134980806,5,0,1
exteroceptive,0.01,True,asynchronous,0.4339143878811727,0.11951360162599645,5,0,1
exteroceptive,0.01,False,asynchronous,0.4508959427801117,0.25507018735685516,5,0,1
exteroceptive,0.01,True,synchronous,0.5102051316983631,0.20176230169954795,5,0,1
exteroceptive,0.01,True,asynchronous,0.47555658002842155,0.22857001793267956,5,0,1
exteroceptive,0.01,True,asynchronous,0.46800329006544733,0.04796229425048504,5,0,1
exteroceptive,0.01,True,asynchronous,0.3909130308669704,0.15005422636999816,5,0,1
exteroceptive,0.01,False,asynchronous,0.30714626245899584,0.3023782254504256,5,0,1
exteroceptive,0.01,False,synchronous,0.36853578160829575,0.12166702108576494,5,0,1
exteroceptive,0.01,True,asynchronous,0.3964166090407458,0.04943568842955598,5,0,1
exteroceptive,0.01,True,synchronous,0.5223590161109634,0.2068681199549733,5,0,1
exteroceptive,0.01,False,synchronous,0.6368018652708956,0.3275175716447901,5,0,1
exteroceptive,0.01,True,asynchronous,0.44376779183792797,0.0,5,0,1
exteroceptive,0.01,True,synchronous,0.6233339973976543,0.133848740175696,5,0,1
exteroceptive,0.01,False,asynchronous,0.5850209802133084,0.2722935200114305,5,0,1
exteroceptive,0.01,False,synchronous,0.5742915706209578,0.18520115745000443,5,0,1
exteroceptive,0.01,False,asynchronous,0.6744688890883984,0.2320711948688856,5,0,1
exteroceptive,0.01,True,asynchronous,0.503423501170973,0.1581077554554252,5,0,1
exteroceptive,0.01,True,asynchronous,0.30323289797247993,0.1414428007783268,5,0,1
exteroceptive,0.01,False,asynchronous,0.529437713540885,0.19759620872037337,5,0,1
exteroceptive,0.01,False,asynchronous,0.2791674812320492,0.0,5,0,1
exteroceptive,0.01,False,asynchronous,0.6412969377542024,0.01016332440288506,5,0,1
exteroceptive,0.01,False,synchronous,0.5077037655798419,0.2218126647645166,5,0,1
exteroceptive,0.01,False,asynchronous,0.4078844885839954,0.03350702437831071,5,0,1
exteroceptive,0.01,False,asynchronous,0.3789843501340804,0.24246295625775022,5,0,1
exteroceptive,0.01,True,asynchronous,0.4275806329051951,0.17012937643669865,5,0,1
exteroceptive,0.01,False,asynchronous,0.40142252572389797,0.1459856585957286,5,0,1
exteroceptive,0.01,True,asynchronous,0.5179402555928931,0.10279054606776282,5,0,1
exteroceptive,0.01,False,asynchronous,0.5495980765892664,0.2375211663813948,5,0,1
exteroceptive,0.01,True,synchronous,0.6171185507555168,0.2408625184749274,5,0,1
exteroceptive,0.01,False,asynchronous,0.48802176465113517,0.05372724085964127,5,0,1
exteroceptive,0.01,False,asynchronous,0.5111740963214529,0.18515683537223748,5,0,1
exteroceptive,0.01,False,asynchronous,0.5084109416468199,0.2506942595307349,5,0,1
exteroceptive,0.01,True,asynchronous,0.529372146563803,0.2603674026153878,5,0,1
exteroceptive,0.01,True,asynchronous,0.4997787882391267,0.27000664272891006,5,0,1
exteroceptive,0.01,False,asynchronous,0.4886627765919227,0.17241599413131736,5,0,1
exteroceptive,0.01,True,synchronous,0.6577232396119352,0.18553780456008961,5,0,1
exteroceptive,0.01,True,asynchronous,0.5264922946017505,0.10489062722433933,5,0,1
exteroceptive,0.01,False,asynchronous,0.26666531764092044,0.20567402006425514,5,0,1
exteroceptive,0.01,True,asynchronous,0.5154147967731537,0.0,5,0,1
exteroceptive,0.01,True,asynchronous,0.3476613303498331,0.045408897730634834,5,0,1
exteroceptive,0.01,True,asynchronous,0.6039231467774108,0.19283673861274797,5,0,1
exteroceptive,0.01,False,asynchronous,0.4019523375869009,0.05570620648952872,5,0,1
exteroceptive,0.01,False,synchronous,0.7032886946290353,0.30249878949990866,5,0,1
control,0.01,False,asynchronous,0.6343546319684445,0.19903847803579847,5,0,1
control,0.01,True,asynchronous,0.3406045389036389,0.3182539173942351,5,0,1
control,0.01,True,asynchronous,0.5143174053147754,0.08437121296487338,5,0,1
control,0.01,False,synchronous,0.5131327291774769,0.15750811279029603,5,0,1
control,0.01,True,asynchronous,0.5700712072315031,0.15805471737014548,5,0,1
control,0.01,False,synchronous,0.4303035991730457,0.19594056820697972,5,0,1
control,0.01,False,asynchronous,0.5447645894652862,0.0,5,0,1
control,0.01,False,synchronous,0.41901714832907105,0.23507585405719036,5,0,1
control,0.01,True,asynchronous,0.6563640962325684,0.2683548537196833,5,0,1
control,0.01,False,asynchronous,0.37151899707926445,0.07498131659780047,5,0,1
control,0.01,True,synchronous,0.4120228111159799,0.1347332364165328,5,0,1
control,0.01,False,synchronous,0.37476047035465404,0.25442360355106935,5,0,1
control,0.01,False,synchronous,0.29177515980254265,0.3341515057391825,5,0,1
control,0.01,False,asynchronous,0.6732851773451644,0.06194442349553961,5,0,1
control,0.01,True,asynchronous,0.5269706253722136,0.11453400973548725,5,0,1
control,0.01,True,synchronous,0.5479983579306453,0.3032939643731424,5,0,1
control,0.01,False,asynchronous,0.5522148101677167,0.16896746607589164,5,0,1
control,0.01,False,asynchronous,0.41274073725360294,0.15813138163482404,5,0,1
control,0.01,True,asynchronous,0.4923619901611105,0.2900733248705788,5,0,1
control,0.01,True,synchronous,0.5975455977020716,0.37351595052195563,5,0,1
control,0.01,False,asynchronous,0.5084088197717379,0.32584474580520384,5,0,1
control,0.01,False,asynchronous,0.4587989891034078,0.030770246290688474,5,0,1
control,0.01,True,asynchronous,0.5788893658061973,0.3269649816005651,5,0,1
control,0.01,True,asynchronous,0.4210245028196341,0.34462183230770255,5,0,1
control,0.01,False,synchronous,0.40366720607236445,0.36609884180657326,5,0,1
control,0.01,False,asynchronous,0.5925927848257264,0.26889704965495437,5,0,1
control,0.01,False,asynchronous,0.3753365835309779,0.20573273633225442,5,0,1
control,0.01,True,asynchronous,0.41778215200376073,0.20666315167150837,5,0,1
control,0.01,False,asynchronous,0.3549293182146745,0.2636810904321564,5,0,1
control,0.01,False,asynchronous,0.43798300939231677,0.3699593318507415,5,0,1
control,0.01,True,asynchronous,0.4926151328220455,0.13888670377288115,5,0,1
control,0.01,True,asynchronous,0.3870243507457989,0.3732019860203561,5,0,1
control,0.01,True,synchronous,0.5208893560645625,0.1607868736460567,5,0,1
control,0.01,False,asynchronous,0.4378789272564472,0.3142736893104316,5,0,1
control,0.01,True,asynchronous,0.39867762709484444,0.05564729328592502,5,0,1
control,0.01,True,asynchronous,0.5166242750050551,0.2225698092115191,5,0,1
control,0.01,True,asynchronous,0.3882480231800175,0.24060691896742373,5,0,1
control,0.01,False,asynchronous,0.5268939073660672,0.1844478172807412,5,0,1
control,0.01,False,asynchronous,0.62698376718463,0.10020420924072257,5,0,1
control,0.01,True,asynchronous,0.34175848408446113,0.33311301084087513,5,0,1
control,0.01,True,asynchronous,0.36651145919199746,0.14952051297963162,5,0,1
control,0.01,True,asynchronous,0.5223241987537508,0.28590872894196523,5,0,1
control,0.01,True,asynchronous,0.38831303717721294,0.3135830343978002,5,0,1
control,0.01,True,synchronous,0.4890874322326819,0.11886606817334994,5,0,1
control,0.01,True,asynchronous,0.4514153342702642,0.07911370240724705,5,0,1
control,0.01,True,asynchronous,0.5283387767691224,0.28922720735211044,5,0,1
control,0.01,True,asynchronous,0.5699486142185576,0.41394411893489486,5,0,1
control,0.01,False,synchronous,0.3197658919648316,0.2375803548157009,5,0,1
control,0.01,True,asynchronous,0.5891266338735155,0.2305813711820288,5,0,1
control,0.01,False,asynchronous,0.5044015265618149,0.2188689433815311,5,0,1
interoceptive,0.01,False,asynchronous,0.6413912475158605,0.21987386266351067,5,0,1
interoceptive,0.01,True,synchronous,0.500066123257135,0.1068062609820052,5,0,1
interoceptive,0.01,True,asynchronous,0.6368268482241757,0.013098693304274753,5,0,1
interoceptive,0.01,True,asynchronous,0.491993339732634,0.14658557138210743,5,0,1
interoceptive,0.01,True,asynchronous,0.5255918659349815,0.0,5,0,1
interoceptive,0.01,False,asynchronous,0.42264819218903366,0.15144672744751012,5,0,1
interoceptive,0.01,False,asynchronous,0.44373528856251565,0.2003476358366485,5,0,1
interoceptive,0.01,False,synchronous,0.6808369915535497,0.025347363813565137,5,0,1
interoceptive,0.01,True,asynchronous,0.46072728328191276,0.18323706893984604,5,0,1
interoceptive,0.01,True,synchronous,0.39887753027140677,0.2504824161615507,5,0,1
interoceptive,0.01,True,asynchronous,0.3258284837454198,0.0252638824073897,5,0,1
interoceptive,0.01,False,asynchronous,0.5480758989062756,0.0,5,0,1
interoceptive,0.01,True,asynchronous,0.5146421660426966,0.0,5,0,1
interoceptive,0.01,False,asynchronous,0.5966811232147103,0.0,5,0,1
interoceptive,0.01,False,asynchronous,0.3737733665566431,0.11229713242129141,5,0,1
interoceptive,0.01,False,asynchronous,0.3639163313353799,0.06815015369861524,5,0,1
interoceptive,0.01,True,asynchronous,0.35511285635562934,0.18670206828252067,5,0,1
interoceptive,0.01,True,asynchronous,0.3376593924743713,0.26077283249469174,5,0,1
interoceptive,0.01,True,asynchronous,0.3851722851489962,0.2951154496630304,5,0,1
interoceptive,0.01,True,asynchronous,0.6580313256102703,0.0,5,0,1
interoceptive,0.01,False,asynchronous,0.4768612738545269,0.17169279717455854,5,0,1
interoceptive,0.01,False,asynchronous,0.32968790605577253,0.0,5,0,1
interoceptive,0.01,True,asynchronous,0.5009146690243493,0.04798576189351703,5,0,1
interoceptive,0.01,True,asynchronous,0.3880187316595444,0.0,5,0,1
interoceptive,0.01,True,asynchronous,0.5345751034472159,0.14382130527051734,5,0,1
interoceptive,0.01,False,asynchronous,0.4274106421439449,0.0,5,0,1
interoceptive,0.01,True,asynchronous,0.4492082369775972,0.128210149762906,5,0,1
interoceptive,0.01,False,asynchronous,0.3284379253671261,0.16288057214211543,5,0,1
interoceptive,0.01,False,asynchronous,0.5215797793674233,0.1539296465154992,5,0,1
interoceptive,0.01,True,asynchronous,0.5582417368310425,0.13166639151980714,5,0,1
interoceptive,0.01,True,asynchronous,0.37816371254764963,0.10489979356564288,5,0,1
interoceptive,0.01,True,asynchronous,0.47865141669605127,0.06434417497357033,5,0,1
interoceptive,0.01,True,synchronous,0.38939969641141986,0.309680344079884,5,0,1
interoceptive,0.01,True,synchronous,0.46458195748245545,0.15580297136170979,5,0,1
interoceptive,0.01,False,asynchronous,0.6259328901397399,0.0,5,0,1
interoceptive,0.01,False,asynchronous,0.3931364889869576,0.11143292109686476,5,0,1
interoceptive,0.01,True,asynchronous,0.6613965069525618,0.09471382441595431,5,0,1
interoceptive,0.01,False,asynchronous,0.4305976646781465,0.18858142460160499,5,0,1
interoceptive,0.01,True,asynchronous,0.5129176842746817,0.0070554691118529245,5,0,1
interoceptive,0.01,False,asynchronous,0.5884990709575425,0.12780117389683826,5,0,1
interoceptive,0.01,True,asynchronous,0.4961110160134405,0.06851802585392061,5,0,1
interoceptive,0.01,True,asynchronous,0.5795685773606111,0.25320840076291,5,0,1
interoceptive,0.01,True,asynchronous,0.5698249747131303,0.10805044958147755,5,0,1
interoceptive,0.01,False,asynchronous,0.4687574562241349,0.0027665030913951727,5,0,1
interoceptive,0.01,False,asynchronous,0.6525084311782865,0.0851442748643318,5,0,1
interoceptive,0.01,True,asynchronous,0.4789195114600215,0.006142936513216138,5,0,1
interoceptive,0.01,False,asynchronous,0.5322069307449334,0.17328162062762137,5,0,1
interoceptive,0.01,False,asynchronous,0.5207431640396555,0.0,5,0,1
interoceptive,0.01,True,asynchronous,0.43703125619028893,0.0,5,0,1
interoceptive,0.01,True,asynchronous,0.42755289778451544,0.07542648234057825,5,0,1
exteroceptive,0.01,True,asynchronous,0.39534213648587496,0.11635638873937112,6,0,1
exteroceptive,0.01,True,asynchronous,0.5096969818246331,0.10800304619198803,6,0,1
exteroceptive,0.01,False,asynchronous,0.6855433702887158,0.2172426305207113,6,0,1
exteroceptive,0.01,False,asynchronous,0.5189155789664796,0.23564793383916022,6,0,1
exteroceptive,0.01,True,asynchronous,0.5724924053399805,0.06336826486622471,6,0,1
exteroceptive,0.01,False,asynchronous,0.49382965609110036,0.2915222598556483,6,0,1
exteroceptive,0.01,False,asynchronous,0.5166171434162858,0.16638291233120692,6,0,1
exteroceptive,0.01,True,asynchronous,0.5154542642747983,0.1922487921561044,6,0,1
exteroceptive,0.01,True,asynchronous,0.5405559992620719,0.11414734329560555,6,0,1
exteroceptive,0.01,True,asynchronous,0.4256911484814006,0.18593569449662997,6,0,1
exteroceptive,0.01,False,asynchronous,0.6152323670366876,0.04047189617736374,6,0,1
exteroceptive,0.01,False,asynchronous,0.6023170832175639,0.23106011293636788,6,0,1
exteroceptive,0.01,False,asynchronous,0.44542986190090356,0.2057218906755204,6,0,1
exteroceptive,0.01,False,synchronous,0.36833300531921026,0.2274293434509096,6,0,1
exteroceptive,0.01,False,asynchronous,0.4182843119503093,0.17058511148314026,6,0,1
exteroceptive,0.01,False,asynchronous,0.5287114818934237,0.28093595666057325,6,0,1
exteroceptive,0.01,False,asynchronous,0.46380063027818913,0.3363186242661922,6,0,1
exteroceptive,0.01,True,synchronous,0.656522182761853,0.39605263638935656,6,0,1
exteroceptive,0.01,True,asynchronous,0.6811899602265263,0.15716240613906007,6,0,1
exteroceptive,0.01,False,asynchronous,0.5925442245080955,0.2468303733265651,6,0,1
exteroceptive,0.01,True,asynchronous,0.5639982406211334,0.2813025991833956,6,0,1
exteroceptive,0.01,True,asynchronous,0.4395132261062521,0.2139981095419932,6,0,1
exteroceptive,0.01,False,asynchronous,0.4644023243268038,0.271193801128519,6,0,1
exteroceptive,0.01,True,asynchronous,0.4058446634518154,0.08502571668299401,6,0,1
exteroceptive,0.01,False,asynchronous,0.5595092003117133,0.24808024291226938,6,0,1
exteroceptive,0.01,True,asynchronous,0.5726989308862421,0.05809608925161834,6,0,1
exteroceptive,0.01,True,asynchronous,0.43428055295293405,0.15458140899215705,6,0,1
exteroceptive,0.01,True,asynchronous,0.4494908592311686,0.19811573402133698,6,0,1
exteroceptive,0.01,False,synchronous,0.4104052754960206,0.09361147895259747,6,0,1
exteroceptive,0.01,False,asynchronous,0.428520640265587,0.2443138949049592,6,0,1
exteroceptive,0.01,False,asynchronous,0.3677132351952646,0.3106475515849244,6,0,1
exteroceptive,0.01,True,asynchronous,0.3483905313099641,0.23036136999059525,6,0,1
exteroceptive,0.01,False,asynchronous,0.331711314024468,0.17881755797354054,6,0,1
exteroceptive,0.01,True,asynchronous,0.38406256342091794,0.1858085245736918,6,0,1
exteroceptive,0.01,False,asynchronous,0.47178855517214746,0.315383955307584,6,0,1
exteroceptive,0.01,False,asynchronous,0.3379138671962078,0.05399034968212649,6,0,1
exteroceptive,0.01,True,asynchronous,0.4883191572828241,0.10443838744188039,6,0,1
exteroceptive,0.01,False,asynchronous,0.49829438590141883,0.13526460328865836,6,0,1
exteroceptive,0.01,False,asynchronous,0.49128361256381325,0.20553134267982426,6,0,1
exteroceptive,0.01,False,asynchronous,0.3263605525967974,0.10276730381306617,6,0,1
exteroceptive,0.01,True,asynchronous,0.4360516810286146,0.05673504803807808,6,0,1
exteroceptive,0.01,False,asynchronous,0.5941555761160482,0.1458111790674504,6,0,1
exteroceptive,0.01,False,asynchronous,0.5121649725668487,0.0,6,0,1
exteroceptive,0.01,True,asynchronous,0.4329679042732178,0.03295736773425345,6,0,1
exteroceptive,0.01,False,asynchronous,0.6148406672195572,0.0,6,0,1
exteroceptive,0.01,False,asynchronous,0.4352048157641613,0.2094331032489742,6,0,1
exteroceptive,0.01,False,asynchronous,0.5096169516385494,0.2066888671713918,6,0,1
exteroceptive,0.01,True,asynchronous,0.6662792373680675,0.11063046127563603,6,0,1
exteroceptive,0.01,False,synchronous,0.6476208942205764,0.2483755019766358,6,0,1
exteroceptive,0.01,False,synchronous,0.375390491472327,0.18397777589870648,6,0,1
control,0.01,True,synchronous,0.5717194709248952,0.18914082082249775,6,0,1
control,0.01,True,asynchronous,0.4930617000024878,0.3368990771848189,6,0,1
control,0.01,True,synchronous,0.48751965194033176,0.3532152630996648,6,0,1
control,0.01,False,asynchronous,0.40409002570188934,0.2879852062191486,6,0,1
control,0.01,True,asynchronous,0.3997884233832838,0.2833351728875549,6,0,1
control,0.01,True,synchronous,0.44182220547948836,0.37974592415697284,6,0,1
control,0.01,True,asynchronous,0.6448005106578478,0.18206821213820704,6,0,1
control,0.01,True,asynchronous,0.7522191779311435,0.36358219586436674,6,0,1
control,0.01,True,asynchronous,0.3386521171824903,0.4039870484828026,6,0,1
control,0.01,False,asynchronous,0.49945438409126025,0.21937191388998026,6,0,1
control,0.01,True,asynchronous,0.5596174431710998,0.1532517282397121,6,0,1
control,0.01,False,asynchronous,0.6331796112343081,0.3071746320657277,6,0,1
control,0.01,True,asynchronous,0.46043662791509515,0.3776568886847067,6,0,1
control,0.01,True,synchronous,0.5666732728515512,0.38691878484404935,6,0,1
control,0.01,False,asynchronous,0.38308150945297453,0.20153053824539804,6,0,1
control,0.01,True,asynchronous,0.6471055185208178,0.1664940374810997,6,0,1
control,0.01,False,asynchronous,0.5867552941751158,0.18496873498532862,6,0,1
control,0.01,True,synchronous,0.5329458703309585,0.20652139859713242,6,0,1
control,0.01,False,asynchronous,0.48695730102861273,0.33679583304509747,6,0,1
control,0.01,False,synchronous,0.4120723929242581,0.2731299472248768,6,0,1
control,0.01,False,synchronous,0.4409350550114824,0.38957898293468346,6,0,1
control,0.01,False,synchronous,0.3806650941857468,0.1704421962269374,6,0,1
control,0.01,False,asynchronous,0.4216594827990534,0.13545238990965341,6,0,1
control,0.01,True,asynchronous,0.5738445856705523,0.005868070868919245,6,0,1
control,0.01,False,asynchronous,0.4672608360593078,0.3516245222914533,6,0,1
control,0.01,True,synchronous,0.5781800001815807,0.29509761650522315,6,0,1
control,0.01,False,asynchronous,0.4530052709325533,0.2606266388167809,6,0,1
control,0.01,True,synchronous,0.5800386281420251,0.19286292995270843,6,0,1
control,0.01,True,asynchronous,0.5223040566936845,0.2437347846736913,6,0,1
control,0.01,False,synchronous,0.6749228556641801,0.4090822903976805,6,0,1
control,0.01,True,asynchronous,0.44377870856596774,0.18404336340687558,6,0,1
control,0.01,True,asynchronous,0.6037039891057799,0.289632881225614,6,0,1
control,0.01,False,asynchronous,0.41468078450214074,0.22987951006015803,6,0,1
control,0.01,True,synchronous,0.5619736693757885,0.2511788602049011,6,0,1
control,0.01,False,asynchronous,0.4454954128398826,0.08924304028370597,6,0,1
control,0.01,True,asynchronous,0.5763257018458757,0.45547247723506556,6,0,1
control,0.01,False,asynchronous,0.5166382463034513,0.16489881585507415,6,0,1
control,0.01,True,asynchronous,0.4902055585204039,0.12098383487394865,6,0,1
control,0.01,False,asynchronous,0.40490228058993794,0.29095067832464727,6,0,1
control,0.01,True,synchronous,0.5133814951806024,0.26037674735969013,6,0,1
control,0.01,False,synchronous,0.6798349256022085,0.21275790946901757,6,0,1
control,0.01,True,asynchronous,0.4756675340672464,0.23255766627408014,6,0,1
control,0.01,False,asynchronous,0.49286945514719943,0.36664071835318846,6,0,1
control,0.01,True,asynchronous,0.39909530292119155,0.21190105866194325,6,0,1
control,0.01,False,asynchronous,0.43399541499118904,0.3777842884919347,6,0,1
control,0.01,False,asynchronous,0.5041973588001099,0.3550499241268734,6,0,1
control,0.01,False,synchronous,0.5226917537306028,0.24317250935566379,6,0,1
control,0.01,False,asynchronous,0.6633832667101058,0.30240906445817783,6,0,1
control,0.01,False,asynchronous,0.5262528310507777,0.2580893405128962,6,0,1
control,0.01,True,asynchronous,0.3251997716766679,0.3470764153197681,6,0,1
interoceptive,0.01,False,asynchronous,0.5130891132254639,0.13816793353270618,6,0,1
interoceptive,0.01,True,asynchronous,0.41687209929744046,0.0,6,0,1
interoceptive,0.01,False,asynchronous,0.6510037792516566,0.0,6,0,1
interoceptive,0.01,False,asynchronous,0.47115309469408373,0.13579581093778953,6,0,1
interoceptive,0.01,True,asynchronous,0.28468666651043334,0.0,6,0,1
interoceptive,0.01,False,asynchronous,0.4622262701638534,0.15323726646649422,6,0,1
interoceptive,0.01,False,asynchronous,0.5742610511391592,0.0,6,0,1
interoceptive,0.01,False,asynchronous,0.533078298582884,0.17856657166848122,6,0,1
interoceptive,0.01,False,asynchronous,0.5668186399594127,0.0,6,0,1
interoceptive,0.01,True,synchronous,0.3883365514095426,0.13363789336673293,6,0,1
interoceptive,0.01,False,asynchronous,0.4533863038536503,0.05232797623156922,6,0,1
interoceptive,0.01,False,asynchronous,0.3782229562287852,0.0,6,0,1
interoceptive,0.01,True,asynchronous,0.39776276667074517,0.0,6,0,1
interoceptive,0.01,True,asynchronous,0.30700185045457723,0.0,6,0,1
interoceptive,0.01,False,asynchronous,0.43314540472670837,0.023475439615557085,6,0,1
interoceptive,0.01,False,asynchronous,0.401344060082185,0.1029702957138488,6,0,1
interoceptive,0.01,False,synchronous,0.3740424714205084,0.1523208763512699,6,0,1
interoceptive,0.01,False,asynchronous,0.7021947902335743,0.1948333379046462,6,0,1
interoceptive,0.01,True,synchronous,0.593825112706821,0.04467970260185958,6,0,1
interoceptive,0.01,False,asynchronous,0.48128031048768455,0.09277009583211433,6,0,1
interoceptive,0.01,False,asynchronous,0.3082172251927579,0.0404718569961421,6,0,1
interoceptive,0.01,False,asynchronous,0.6524307998918679,0.1814552804640432,6,0,1
interoceptive,0.01,False,asynchronous,0.4396036930318775,0.1383256898688171,6,0,1
interoceptive,0.01,False,asynchronous,0.4977596630204661,0.0,6,0,1
interoceptive,0.01,False,asynchronous,0.5914467608172775,0.08811629269160516,6,0,1
interoceptive,0.01,False,asynchronous,0.4207149144348972,0.0,6,0,1
interoceptive,0.01,False,asynchronous,0.29769800935668167,0.10910326408074984,6,0,1
interoceptive,0.01,False,asynchronous,0.6592870931058185,0.06500161263045569,6,0,1
interoceptive,0.01,False,asynchronous,0.543304231135476,0.06578983116692139,6,0,1
interoceptive,0.01,True,asynchronous,0.48008016074439497,0.0021873395658159323,6,0,1
interoceptive,0.01,False,asynchronous,0.4084922581504056,0.2204529662574652,6,0,1
interoceptive,0.01,True,asynchronous,0.5384727857217201,0.004585740743687963,6,0,1
interoceptive,0.01,False,asynchronous,0.4235633763327299,0.11565109831291398,6,0,1
interoceptive,0.01,False,asynchronous,0.4789698638769975,0.016521190267227884,6,0,1
interoceptive,0.01,False,asynchronous,0.4324156966838253,0.01462147944550797,6,0,1
interoceptive,0.01,True,asynchronous,0.5896123319015474,0.0,6,0,1
interoceptive,0.01,True,asynchronous,0.5384025262107274,0.04349527715652901,6,0,1
interoceptive,0.01,True,asynchronous,0.401796558563267,0.14191945202674677,6,0,1
interoceptive,0.01,False,asynchronous,0.48989304668418093,0.0,6,0,1
interoceptive,0.01,False,asynchronous,0.5816025622145218,0.09898265239904791,6,0,1
interoceptive,0.01,False,synchronous,0.49750853616399643,0.05095543859587284,6,0,1
interoceptive,0.01,False,asynchronous,0.46126635453458187,0.0692498007285538,6,0,1
interoceptive,0.01,True,asynchronous,0.44308352909104287,0.20297984545181708,6,0,1
interoceptive,0.01,False,asynchronous,0.7375666953293741,0.12666501512942238,6,0,1
interoceptive,0.01,True,asynchronous,0.4355451785472369,0.12987163811038627,6,0,1
interoceptive,0.01,False,asynchronous,0.6210461820627176,0.16078680932938896,6,0,1
interoceptive,0.01,False,asynchronous,0.5366367025210012,0.024983327885369062,6,0,1
interoceptive,0.01,False,asynchronous,0.35777663458212183,0.0,6,0,1
interoceptive,0.01,False,asynchronous,0.5149093160589076,0.0,6,0,1
interoceptive,0.01,False,asynchronous,0.6094934691969496,0.12456121789034325,6,0,1
control,0.01,False,asynchronous,0.47948553714391995,0.20437212259531481,7,0,1
control,0.01,True,asynchronous,0.4542279342972031,0.15975095314508891,7,0,1
control,0.01,True,asynchronous,0.4477730269263989,0.2678642694823324,7,0,1
control,0.01,True,asynchronous,0.5548390794544746,0.14950569286030424,7,0,1
control,0.01,True,asynchronous,0.6558172473740622,0.3097832290693608,7,0,1
control,0.01,True,asynchronous,0.5064260846398118,0.2931850736603763,7,0,1
control,0.01,False,asynchronous,0.5241916234200021,0.36229467805030446,7,0,1
control,0.01,True,synchronous,0.5530648479706956,0.23133549101359135,7,0,1
control,0.01,True,asynchronous,0.6214029172703621,0.17189872435165643,7,0,1
control,0.01,False,asynchronous,0.5084951521494709,0.05185112423690694,7,0,1
control,0.01,False,asynchronous,0.6512321991618099,0.21604470637715106,7,0,1
control,0.01,False,asynchronous,0.41516584917029026,0.35576211347003867,7,0,1
control,0.01,False,asynchronous,0.4362909196895977,0.13606846224749697,7,0,1
control,0.01,False,asynchronous,0.472207256034874,0.296775112324871,7,0,1
control,0.01,False,synchronous,0.6171128197669464,0.29105043217533055,7,0,1
control,0.01,True,asynchronous,0.7029398981318943,0.3786298894479337,7,0,1
control,0.01,False,asynchronous,0.5290213796173162,0.17966481656974354,7,0,1
control,0.01,False,asynchronous,0.5280461046016104,0.34814062734040785,7,0,1
control,0.01,True,asynchronous,0.5195209091197301,0.14696541247736994,7,0,1
control,0.01,False,asynchronous,0.5341903152600159,0.17502642539099497,7,0,1
control,0.01,True,asynchronous,0.5803046971449155,0.2155283349711259,7,0,1
control,0.01,False,synchronous,0.6172567990766192,0.22288345829085882,7,0,1
control,0.01,True,synchronous,0.4725298068187204,0.1718760656174031,7,0,1
control,0.01,True,asynchronous,0.44978757921192836,0.27850099746446777,7,0,1
control,0.01,True,asynchronous,0.6012652291607785,0.04365712099880062,7,0,1
control,0.01,True,asynchronous,0.7631358500219055,0.3236338807115677,7,0,1
control,0.01,False,asynchronous,0.3345125878502536,0.2182959776897192,7,0,1
control,0.01,False,asynchronous,0.39301268202829637,0.19514418979958897,7,0,1
control,0.01,False,asynchronous,0.5270779538350859,0.17511019398056568,7,0,1
control,0.01,False,asynchronous,0.5456283726433792,0.3302756898088016,7,0,1
control,0.01,False,synchronous,0.5710138751856983,0.2998403528736647,7,0,1
control,0.01,True,asynchronous,0.41179356258721017,0.30591578560274774,7,0,1
control,0.01,True,synchronous,0.4798808426096089,0.3327999930673267,7,0,1
control,0.01,True,asynchronous,0.5605855319011821,0.41654719966623127,7,0,1
control,0.01,False,synchronous,0.7771598654185959,0.3303194748013765,7,0,1
control,0.01,False,synchronous,0.4758455057405136,0.22261721669378515,7,0,1
control,0.01,False,synchronous,0.52051319929879,0.1511051554939532,7,0,1
control,0.01,False,asynchronous,0.4573500509262549,0.17112425301545894,7,0,1
control,0.01,True,asynchronous,0.3486436166083946,0.24805920620068492,7,0,1
control,0.01,True,asynchronous,0.460371878755583,0.11865632844881512,7,0,1
control,0.01,False,asynchronous,0.6846591680355109,0.3628686863713285,7,0,1
control,0.01,False,asynchronous,0.505906830012298,0.1829950388077723,7,0,1
control,0.01,True,asynchronous,0.6239311214449409,0.0,7,0,1
control,0.01,False,asynchronous,0.5570504540299154,0.05166307174876322,7,0,1
control,0.01,False,asynchronous,0.4698103990259475,0.10615159892442824,7,0,1
control,0.01,False,synchronous,0.5205195830302476,0.23167296504314344,7,0,1
control,0.01,False,asynchronous,0.558754999135746,0.2939171428653248,7,0,1
control,0.01,True,synchronous,0.4861935739422242,0.3237855125552118,7,0,1
control,0.01,True,asynchronous,0.5128376826696178,0.19128959652473537,7,0,1
control,0.01,False,asynchronous,0.6098398347004053,0.24560293458823243,7,0,1
interoceptive,0.01,False,asynchronous,0.4845912374503495,0.2293294855196903,7,0,1
interoceptive,0.01,False,asynchronous,0.40576126693403314,0.15836022557514406,7,0,1
interoceptive,0.01,True,asynchronous,0.3406528056978785,0.051376350185405525,7,0,1
interoceptive,0.01,False,asynchronous,0.5291766259039166,0.13543960947054307,7,0,1
interoceptive,0.01,True,asynchronous,0.4569335914044294,0.18395489024793055,7,0,1
interoceptive,0.01,True,asynchronous,0.41951322804730584,0.03614231902076511,7,0,1
interoceptive,0.01,True,asynchronous,0.538187010306541,0.02586624838444404,7,0,1
interoceptive,0.01,True,asynchronous,0.43722340136700283,0.011530130542116025,7,0,1
interoceptive,0.01,False,asynchronous,0.47174893324461836,0.16886556610373443,7,0,1
interoceptive,0.01,True,synchronous,0.4215127997411002,0.14907997240032733,7,0,1
interoceptive,0.01,True,synchronous,0.6246294126028427,0.18521334410449444,7,0,1
interoceptive,0.01,False,asynchronous,0.5306368727328565,0.16262115920219247,7,0,1
interoceptive,0.01,False,asynchronous,0.6159621990141775,0.17827494798654608,7,0,1
interoceptive,0.01,False,asynchronous,0.5784223707809938,0.0,7,0,1
interoceptive,0.01,False,asynchronous,0.5532168440185797,0.15568683252068521,7,0,1
interoceptive,0.01,True,asynchronous,0.3651595678563085,0.15987167145022624,7,0,1
interoceptive,0.01,True,asynchronous,0.4683142560146583,0.06270722437292903,7,0,1
interoceptive,0.01,True,asynchronous,0.6659173048678091,0.12305891414588217,7,0,1
interoceptive,0.01,False,asynchronous,0.37400741698658274,0.144495146413113,7,0,1
interoceptive,0.01,False,asynchronous,0.6123211481512526,0.11668411550231361,7,0,1
interoceptive,0.01,False,asynchronous,0.37421030454179466,0.16115221134094285,7,0,1
interoceptive,0.01,False,asynchronous,0.4862224882961483,0.0,7,0,1
interoceptive,0.01,True,asynchronous,0.690234718735085,0.11238503724633639,7,0,1
interoceptive,0.01,True,asynchronous,0.5827702463336911,0.0,7,0,1
interoceptive,0.01,True,synchronous,0.447927914953736,0.133206274281033,7,0,1
interoceptive,0.01,False,asynchronous,0.6314051650988787,0.03256300270569311,7,0,1
interoceptive,0.01,True,asynchronous,0.587020783029303,0.0,7,0,1
interoceptive,0.01,True,asynchronous,0.5485114455067733,0.19313897774325572,7,0,1
interoceptive,0.01,True,asynchronous,0.5518701656517024,0.1082054903197874,7,0,1
interoceptive,0.01,False,asynchronous,0.44565958548856555,0.04698263761625307,7,0,1
interoceptive,0.01,False,asynchronous,0.4943032419723917,0.1317746773869377,7,0,1
interoceptive,0.01,False,asynchronous,0.5289430416374298,0.03118590176381658,7,0,1
interoceptive,0.01,False,asynchronous,0.6862215027896075,0.0,7,0,1
interoceptive,0.01,True,asynchronous,0.4073584961545566,0.15302438641425453,7,0,1
interoceptive,0.01,True,asynchronous,0.538466393482801,0.06460472448712049,7,0,1
interoceptive,0.01,False,asynchronous,0.3885864212367734,0.30952902648379244,7,0,1
interoceptive,0.01,True,asynchronous,0.5039952918257007,0.0,7,0,1
interoceptive,0.01,False,asynchronous,0.35377980656339564,0.06916561054472127,7,0,1
interoceptive,0.01,False,asynchronous,0.5479813280470085,0.13965326631048774,7,0,1
interoceptive,0.01,False,asynchronous,0.5924274022543478,0.26415309405434445,7,0,1
interoceptive,0.01,False,asynchronous,0.5436059998325413,0.0,7,0,1
interoceptive,0.01,False,asynchronous,0.33833306889741976,0.0,7,0,1
interoceptive,0.01,False,asynchronous,0.5114838302248866,0.05151034767086146,7,0,1
interoceptive,0.01,True,asynchronous,0.46957521077223513,0.010467489834569986,7,0,1
interoceptive,0.01,True,asynchronous,0.6287289116824587,0.2160261543066142,7,0,1
interoceptive,0.01,True,asynchronous,0.4179270822843626,0.15972005915980114,7,0,1
interoceptive,0.01,False,asynchronous,0.5818704129550583,0.03869735703824934,7,0,1
interoceptive,0.01,True,asynchronous,0.7367209068520728,0.02931103162033813,7,0,1
interoceptive,0.01,True,asynchronous,0.2843638409649224,0.15354118249753645,7,0,1
interoceptive,0.01,True,asynchronous,0.5553871809996793,0.0,7,0,1
exteroceptive,0.01,False,asynchronous,0.4840448244349316,0.23565364446142956,7,0,1
exteroceptive,0.01,False,synchronous,0.5085573619787189,0.26750657267175737,7,0,1
exteroceptive,0.01,True,asynchronous,0.42928333520895084,0.22875554014057242,7,0,1
exteroceptive,0.01,False,asynchronous,0.6367069436120658,0.24972002506319335,7,0,1
exteroceptive,0.01,False,asynchronous,0.5100501656108077,0.04783501520176306,7,0,1
exteroceptive,0.01,True,asynchronous,0.37688841995966044,0.11303254903112198,7,0,1
exteroceptive,0.01,True,asynchronous,0.34971000263459606,0.21074468485576225,7,0,1
exteroceptive,0.01,False,asynchronous,0.42551939839523195,0.2819684953562997,7,0,1
exteroceptive,0.01,True,asynchronous,0.5519498132533999,0.11302278301017696,7,0,1
exteroceptive,0.01,False,asynchronous,0.5884621248147371,0.057547333136043086,7,0,1
exteroceptive,0.01,True,asynchronous,0.5638178679026203,0.1710651952239746,7,0,1
exteroceptive,0.01,True,asynchronous,0.5609891869575998,0.17441335173033778,7,0,1
exteroceptive,0.01,True,asynchronous,0.485458777939081,0.043118123686941484,7,0,1
exteroceptive,0.01,False,synchronous,0.44027074520198545,0.2990335638687365,7,0,1
exteroceptive,0.01,True,asynchronous,0.4988510859197984,0.0,7,0,1
exteroceptive,0.01,False,asynchronous,0.5059060719502363,0.2090896332175971,7,0,1
exteroceptive,0.01,False,asynchronous,0.43398587392542487,0.20161337646936023,7,0,1
exteroceptive,0.01,True,asynchronous,0.5548440438616958,0.2581457402830961,7,0,1
exteroceptive,0.01,True,asynchronous,0.50995966292935,0.12619795790365007,7,0,1
exteroceptive,0.01,False,synchronous,0.43741752195869765,0.2636598036768091,7,0,1
exteroceptive,0.01,True,asynchronous,0.4747981959778959,0.26742670987226513,7,0,1
exteroceptive,0.01,False,asynchronous,0.45738681768520223,0.31132962492021043,7,0,1
exteroceptive,0.01,False,asynchronous,0.5219411505531621,0.06504923921950473,7,0,1
exteroceptive,0.01,False,asynchronous,0.6620073828324157,0.05246504998843304,7,0,1
exteroceptive,0.01,False,asynchronous,0.555573300190133,0.06237397708460922,7,0,1
exteroceptive,0.01,False,asynchronous,0.45307617032681036,0.22507086281533,7,0,1
exteroceptive,0.01,False,synchronous,0.2519230648071533,0.23686062538786368,7,0,1
exteroceptive,0.01,True,asynchronous,0.4690291304959053,0.1381763545736321,7,0,1
exteroceptive,0.01,False,asynchronous,0.4760297706990831,0.1494682144975124,7,0,1
exteroceptive,0.01,False,asynchronous,0.5646297548952843,0.218288963913363,7,0,1
exteroceptive,0.01,False,asynchronous,0.5544572924478861,0.13530140988794465,7,0,1
exteroceptive,0.01,True,asynchronous,0.4583090897466413,0.018853888028899923,7,0,1
exteroceptive,0.01,True,synchronous,0.5958904495393846,0.0786323016691908,7,0,1
exteroceptive,0.01,True,asynchronous,0.6147107546155932,0.009354761511956522,7,0,1
exteroceptive,0.01,False,asynchronous,0.3120876066199959,0.22227425391412445,7,0,1
exteroceptive,0.01,True,asynchronous,0.4849363593831563,0.30156038623403725,7,0,1
exteroceptive,0.01,False,asynchronous,0.39408395136022845,0.0,7,0,1
exteroceptive,0.01,False,asynchronous,0.4103317381216205,0.07539469149326294,7,0,1
exteroceptive,0.01,False,synchronous,0.5640679543354786,0.34962619112694954,7,0,1
exteroceptive,0.01,False,asynchronous,0.5357514969088165,0.13473290775868163,7,0,1
exteroceptive,0.01,True,asynchronous,0.5641852218150074,0.1867056251022986,7,0,1
exteroceptive,0.01,False,asynchronous,0.554685389836964,0.2149187555224928,7,0,1
exteroceptive,0.01,False,asynchronous,0.4198408134460975,0.2782243344730603,7,0,1
exteroceptive,0.01,False,asynchronous,0.3912937191272217,0.2314244220360458,7,0,1
exteroceptive,0.01,False,synchronous,0.36838289978535327,0.24694193145146093,7,0,1
exteroceptive,0.01,False,asynchronous,0.6377592090174162,0.24784196216843551,7,0,1
exteroceptive,0.01,False,asynchronous,0.6500920080601446,0.13378337814238622,7,0,1
exteroceptive,0.01,False,asynchronous,0.43020036156623703,0.2609603269227628,7,0,1
exteroceptive,0.01,True,synchronous,0.458886639682927,0.14226671230703797,7,0,1
exteroceptive,0.01,False,asynchronous,0.7336836887161284,0.1774524736363976,7,0,1
exteroceptive,0.01,True,asynchronous,0.3636676221374696,0.1896799429432404,8,0,1
exteroceptive,0.01,True,asynchronous,0.5028280523461334,0.2939527104475066,8,0,1
exteroceptive,0.01,False,asynchronous,0.5436398541951212,0.31150268445140017,8,0,1
exteroceptive,0.01,True,asynchronous,0.4622161598064917,0.14512648283806623,8,0,1
exteroceptive,0.01,False,asynchronous,0.5516845187627178,0.20583220199630547,8,0,1
exteroceptive,0.01,False,asynchronous,0.5087488759479503,0.0034975242606640755,8,0,1
exteroceptive,0.01,True,asynchronous,0.29182082493443223,0.21374360677309698,8,0,1
exteroceptive,0.01,False,asynchronous,0.7263750770485645,0.0,8,0,1
exteroceptive,0.01,False,asynchronous,0.5158010994398812,0.13764093576176825,8,0,1
exteroceptive,0.01,False,asynchronous,0.6953678893190133,0.28276039325022995,8,0,1
exteroceptive,0.01,False,synchronous,0.5609440927004119,0.03559725302655631,8,0,1
exteroceptive,0.01,False,asynchronous,0.3730981238202057,0.31388250517221117,8,0,1
exteroceptive,0.01,False,asynchronous,0.43406759490898317,0.09686896263715651,8,0,1
exteroceptive,0.01,True,asynchronous,0.5386715790312708,0.11110707539261572,8,0,1
exteroceptive,0.01,False,asynchronous,0.39914027417300485,0.0646816227679462,8,0,1
exteroceptive,0.01,True,asynchronous,0.6044630315452155,0.09851421633244868,8,0,1
exteroceptive,0.01,False,asynchronous,0.6101979448993681,0.12725124863356388,8,0,1
exteroceptive,0.01,True,asynchronous,0.5327314853658622,0.28721735371621765,8,0,1
exteroceptive,0.01,True,synchronous,0.4182196334933385,0.28293059580798563,8,0,1
exteroceptive,0.01,True,synchronous,0.677264336639376,0.18532736097455124,8,0,1
exteroceptive,0.01,False,asynchronous,0.5058992927652818,0.07962028596083098,8,0,1
exteroceptive,0.01,False,asynchronous,0.582570242413485,0.025991314720203607,8,0,1
exteroceptive,0.01,False,asynchronous,0.49706867173580943,0.06388660555207692,8,0,1
exteroceptive,0.01,False,asynchronous,0.3858616132956313,0.22115922030997393,8,0,1
exteroceptive,0.01,True,asynchronous,0.5110298498888091,0.22462339139603882,8,0,1
exteroceptive,0.01,False,asynchronous,0.3942902832989069,0.1285420457255704,8,0,1
exteroceptive,0.01,True,asynchronous,0.323421050299144,0.22537567932110772,8,0,1
exteroceptive,0.01,True,asynchronous,0.5977410043677119,0.16457370918837821,8,0,1
exteroceptive,0.01,False,asynchronous,0.5201646749454375,0.12621694242766435,8,0,1
exteroceptive,0.01,True,asynchronous,0.37464972998408475,0.11618521244562274,8,0,1
exteroceptive,0.01,True,asynchronous,0.5294786440819282,0.23368822539897421,8,0,1
exteroceptive,0.01,True,asynchronous,0.36392487792200007,0.16916768664960333,8,0,1
exteroceptive,0.01,False,synchronous,0.490719029301882,0.34214482511259814,8,0,1
exteroceptive,0.01,False,asynchronous,0.44251309844202713,0.3630232291509273,8,0,1
exteroceptive,0.01,False,synchronous,0.5032656080817244,0.19600188611249514,8,0,1
exteroceptive,0.01,False,asynchronous,0.5524893068966379,0.0,8,0,1
exteroceptive,0.01,True,synchronous,0.4585428118876471,0.24759439273985814,8,0,1
exteroceptive,0.01,True,asynchronous,0.4953529644329659,0.14183583703629096,8,0,1
exteroceptive,0.01,False,asynchronous,0.5360683631958882,0.336374311518548,8,0,1
exteroceptive,0.01,False,asynchronous,0.7319900895367799,0.18440558064383705,8,0,1
exteroceptive,0.01,False,asynchronous,0.27972316950372395,0.04282564241154857,8,0,1
exteroceptive,0.01,False,asynchronous,0.540144053626052,0.32630938953194333,8,0,1
exteroceptive,0.01,False,asynchronous,0.5062156082139441,0.08333729778222537,8,0,1
exteroceptive,0.01,True,asynchronous,0.48229568526791533,0.05451878523453382,8,0,1
exteroceptive,0.01,False,asynchronous,0.4324697489680805,0.0,8,0,1
exteroceptive,0.01,True,asynchronous,0.4870660065515794,0.13636744670052184,8,0,1
exteroceptive,0.01,False,synchronous,0.5223720829548155,0.3231564719922118,8,0,1
exteroceptive,0.01,True,asynchronous,0.47579845974480245,0.2178637427193126,8,0,1
exteroceptive,0.01,False,asynchronous,0.4802749714813655,0.15070782069633576,8,0,1
exteroceptive,0.01,True,asynchronous,0.4545594531023657,0.09278451223029112,8,0,1
interoceptive,0.01,True,asynchronous,0.44851269975553537,0.0646442490249543,8,0,1
interoceptive,0.01,True,asynchronous,0.41299118964538484,0.17714984984460447,8,0,1
interoceptive,0.01,False,asynchronous,0.7466334628394005,0.14693352909663404,8,0,1
interoceptive,0.01,True,asynchronous,0.4348677439817469,0.08784827990525557,8,0,1
interoceptive,0.01,False,asynchronous,0.6229884808214011,0.1158518182135404,8,0,1
interoceptive,0.01,True,asynchronous,0.4765800850790924,0.0,8,0,1
interoceptive,0.01,True,asynchronous,0.41234693087202834,0.09614374788482462,8,0,1
interoceptive,0.01,False,asynchronous,0.5435206156247272,0.19162164037858212,8,0,1
interoceptive,0.01,False,asynchronous,0.4805122503573696,0.07231510627879592,8,0,1
interoceptive,0.01,True,asynchronous,0.3682343961526675,0.10722720809749989,8,0,1
interoceptive,0.01,True,asynchronous,0.34511765700641905,0.005160627998024747,8,0,1
interoceptive,0.01,False,asynchronous,0.6643837302605644,0.0,8,0,1
interoceptive,0.01,False,asynchronous,0.4969202885986929,0.03266171379045636,8,0,1
interoceptive,0.01,False,asynchronous,0.27020320971734374,0.054408369033636494,8,0,1
interoceptive,0.01,True,asynchronous,0.5853048820765491,0.09989030862510223,8,0,1
interoceptive,0.01,False,asynchronous,0.591279275384919,0.04774117576197469,8,0,1
interoceptive,0.01,False,synchronous,0.6908785437235347,0.19049083884058177,8,0,1
interoceptive,0.01,False,asynchronous,0.45160562313871233,0.0,8,0,1
interoceptive,0.01,True,asynchronous,0.5508431537641786,0.0,8,0,1
interoceptive,0.01,False,asynchronous,0.45455699915291614,0.0,8,0,1
interoceptive,0.01,False,asynchronous,0.463575454418466,0.24029029568999133,8,0,1
interoceptive,0.01,True,asynchronous,0.2638331250129936,0.06293401529772145,8,0,1
interoceptive,0.01,False,asynchronous,0.7228894993171177,0.04746559264493108,8,0,1
interoceptive,0.01,False,asynchronous,0.3153779695432862,0.11106033434210719,8,0,1
interoceptive,0.01,True,synchronous,0.6314732159062441,0.06864536507934464,8,0,1
interoceptive,0.01,True,asynchronous,0.5730752333933284,0.20248749941202393,8,0,1
interoceptive,0.01,True,asynchronous,0.4783052185879898,0.1284065609333533,8,0,1
interoceptive,0.01,True,asynchronous,0.5893597784251623,0.0,8,0,1
interoceptive,0.01,True,asynchronous,0.31764273210055965,0.1737353087719164,8,0,1
interoceptive,0.01,False,asynchronous,0.5351340757398816,0.0,8,0,1
interoceptive,0.01,True,asynchronous,0.6288649586652055,0.0,8,0,1
interoceptive,0.01,False,synchronous,0.5132809688461273,0.24792128389142415,8,0,1
interoceptive,0.01,False,asynchronous,0.48676366303122626,0.09185018231846187,8,0,1
interoceptive,0.01,False,asynchronous,0.6307758573691411,0.05205217088479554,8,0,1
interoceptive,0.01,True,asynchronous,0.48788711085379344,0.1507500558123568,8,0,1
interoceptive,0.01,True,asynchronous,0.5108079665180302,0.14838439618102084,8,0,1
interoceptive,0.01,True,asynchronous,0.5925871556591203,0.03780476399972919,8,0,1
interoceptive,0.01,True,asynchronous,0.6827010489618833,0.02623929285113323,8,0,1
interoceptive,0.01,False,asynchronous,0.6433868104059753,0.019083820385268638,8,0,1
interoceptive,0.01,True,asynchronous,0.41916711326580647,0.06251393943234825,8,0,1
interoceptive,0.01,False,asynchronous,0.4262748907980075,0.0,8,0,1
interoceptive,0.01,True,asynchronous,0.5891734417500779,0.007051620877326054,8,0,1
interoceptive,0.01,False,asynchronous,0.508597997931799,0.03750614652996065,8,0,1
interoceptive,0.01,True,asynchronous,0.3883439087535007,0.08708443445115925,8,0,1
interoceptive,0.01,True,asynchronous,0.6818726981957149,0.05002969934407917,8,0,1
interoceptive,0.01,True,asynchronous,0.40681104493584147,0.0,8,0,1
interoceptive,0.01,False,synchronous,0.5795656905121468,0.12779217400029388,8,0,1
interoceptive,0.01,True,asynchronous,0.4375517451377988,0.0509237373723429,8,0,1
interoceptive,0.01,True,asynchronous,0.4724187314178315,0.11124313415316059,8,0,1
interoceptive,0.01,False,asynchronous,0.3700888470956753,0.0,8,0,1
control,0.01,True,asynchronous,0.44160407989804196,0.30155216558442133,8,0,1
control,0.01,True,synchronous,0.6196697710612198,0.19018788092487052,8,0,1
control,0.01,False,asynchronous,0.46464354180730544,0.28768239169915044,8,0,1
control,0.01,False,asynchronous,0.6017061936873243,0.10665299062874452,8,0,1
control,0.01,False,asynchronous,0.5546459779185928,0.12262984322412909,8,0,1
control,0.01,False,synchronous,0.6542415390417547,0.27896898986093105,8,0,1
control,0.01,False,asynchronous,0.43837592169104966,0.12825537077817534,8,0,1
control,0.01,False,synchronous,0.7256199958115443,0.2568409606773664,8,0,1
control,0.01,True,asynchronous,0.4842808733468561,0.16728313768513708,8,0,1
control,0.01,True,asynchronous,0.519363251220638,0.3212503622800069,8,0,1
control,0.01,True,synchronous,0.5486912884824542,0.14004681202535704,8,0,1
control,0.01,True,asynchronous,0.5236219336332564,0.12298168733505327,8,0,1
control,0.01,False,asynchronous,0.4289808151020777,0.28156806531262574,8,0,1
control,0.01,False,asynchronous,0.38488226683350485,0.3936821974279946,8,0,1
control,0.01,True,asynchronous,0.5560563305865731,0.3128702501970849,8,0,1
control,0.01,False,asynchronous,0.4818309823714556,0.348300986866949,8,0,1
control,0.01,True,asynchronous,0.49906554925685104,0.20432274164541375,8,0,1
control,0.01,True,asynchronous,0.5876648986360126,0.3474710694178144,8,0,1
control,0.01,True,asynchronous,0.4147235771791197,0.25131071554063017,8,0,1
control,0.01,True,asynchronous,0.5376534086851249,0.30945751786555814,8,0,1
control,0.01,True,asynchronous,0.5354549433413566,0.16566621625623135,8,0,1
control,0.01,False,synchronous,0.39175533132345064,0.2884946026081698,8,0,1
control,0.01,False,asynchronous,0.32261604745547057,0.2400310515520748,8,0,1
control,0.01,True,asynchronous,0.5149400437961656,0.3057871395927908,8,0,1
control,0.01,True,synchronous,0.3740168337353247,0.1913423197143964,8,0,1
control,0.01,False,asynchronous,0.36868223222651825,0.3206607443693573,8,0,1
control,0.01,True,synchronous,0.39520884662752515,0.2998745873893587,8,0,1
control,0.01,True,asynchronous,0.5046979650299293,0.3050437191959591,8,0,1
control,0.01,True,asynchronous,0.48049372879197894,0.22007475529993065,8,0,1
control,0.01,True,asynchronous,0.5618500481582018,0.22249690107940334,8,0,1
control,0.01,True,asynchronous,0.572456163795321,0.11414596366222288,8,0,1
control,0.01,True,asynchronous,0.3758075979494027,0.2792761654304927,8,0,1
control,0.01,False,asynchronous,0.4347948661710772,0.2439808242137775,8,0,1
control,0.01,True,asynchronous,0.5321969820420007,0.22808375896131652,8,0,1
control,0.01,True,asynchronous,0.4581787247641022,0.30987072280699024,8,0,1
control,0.01,False,asynchronous,0.32894579170261073,0.31466895580483895,8,0,1
control,0.01,True,asynchronous,0.628667169827542,0.09277627913619765,8,0,1
control,0.01,True,asynchronous,0.3675847853954132,0.31298352222375175,8,0,1
control,0.01,False,asynchronous,0.5421142323936431,0.05001978978682092,8,0,1
control,0.01,False,synchronous,0.40836270048770873,0.18680352228910316,8,0,1
control,0.01,True,asynchronous,0.5022404014197897,0.15572990814506205,8,0,1
control,0.01,False,asynchronous,0.5706424943600329,0.16392825385747178,8,0,1
control,0.01,True,asynchronous,0.49968057512158964,0.4171236528632184,8,0,1
control,0.01,True,asynchronous,0.49603953244154136,0.3524212362621966,8,0,1
control,0.01,True,asynchronous,0.549421700734122,0.0,8,0,1
control,0.01,False,asynchronous,0.5914285258824894,0.23988873586598233,8,0,1
control,0.01,True,asynchronous,0.4162273369829045,0.14952017300782822,8,0,1
control,0.01,True,synchronous,0.5544089259775212,0.3530978588114364,8,0,1
control,0.01,True,asynchronous,0.5875571235379251,0.26946821449932123,8,0,1
control,0.01,True,asynchronous,0.5096220213401788,0.10470001686087241,8,0,1
interoceptive,0.01,False,synchronous,0.5667933424284319,0.21547432786271847,9,0,1
interoceptive,0.01,False,asynchronous,0.571266259936804,0.04816412100334193,9,0,1
interoceptive,0.01,True,asynchronous,0.7188623261799251,0.11970222365686432,9,0,1
interoceptive,0.01,False,asynchronous,0.382695076477964,0.22957994434956663,9,0,1
interoceptive,0.01,False,asynchronous,0.40108125919322485,0.0,9,0,1
interoceptive,0.01,True,asynchronous,0.4436674764678156,0.19956030482773646,9,0,1
interoceptive,0.01,False,asynchronous,0.37679064513197297,0.0,9,0,1
interoceptive,0.01,False,synchronous,0.6026950378833323,0.10735452432633825,9,0,1
interoceptive,0.01,False,asynchronous,0.4950390425744959,0.09469010505990869,9,0,1
interoceptive,0.01,False,asynchronous,0.45674791706161755,0.03919158589460012,9,0,1
interoceptive,0.01,True,asynchronous,0.45971797157811445,0.07383581710728156,9,0,1
interoceptive,0.01,True,asynchronous,0.5354858356659603,0.055508862568561364,9,0,1
interoceptive,0.01,False,asynchronous,0.6959481874695663,0.014352521877855608,9,0,1
interoceptive,0.01,False,asynchronous,0.3380514737480489,0.22494249593980215,9,0,1
interoceptive,0.01,False,asynchronous,0.54765004649007,0.24456209922681288,9,0,1
interoceptive,0.01,True,asynchronous,0.4965292048120817,0.05915778163224793,9,0,1
interoceptive,0.01,True,asynchronous,0.42482968041221464,0.1268766017376283,9,0,1
interoceptive,0.01,True,asynchronous,0.4944465848534123,0.04939513907444355,9,0,1
interoceptive,0.01,True,asynchronous,0.5138917075605719,0.11786139850797382,9,0,1
interoceptive,0.01,True,asynchronous,0.34090481008221335,0.0040066096329139655,9,0,1
interoceptive,0.01,False,synchronous,0.5172432474728438,0.08799060437666904,9,0,1
interoceptive,0.01,True,synchronous,0.36844783742710935,0.10903888914760151,9,0,1
interoceptive,0.01,False,asynchronous,0.28249670451793246,0.14553477175942553,9,0,1
interoceptive,0.01,True,asynchronous,0.3341457512462926,0.0071187229110034195,9,0,1
interoceptive,0.01,True,asynchronous,0.48004615891154706,0.08901346737800507,9,0,1
interoceptive,0.01,True,asynchronous,0.6173697654363635,0.029164147345330974,9,0,1
interoceptive,0.01,True,asynchronous,0.40060049391196695,0.0,9,0,1
interoceptive,0.01,True,asynchronous,0.7986829109629653,0.0,9,0,1
interoceptive,0.01,False,asynchronous,0.44583501346784327,0.07971164523457142,9,0,1
interoceptive,0.01,False,asynchronous,0.3390339473099111,0.10870941980961919,9,0,1
interoceptive,0.01,True,asynchronous,0.593815394581887,0.16237291928495395,9,0,1
interoceptive,0.01,True,asynchronous,0.5458703438553343,0.19621391203810462,9,0,1
interoceptive,0.01,True,asynchronous,0.537983099109221,0.13281722001562182,9,0,1
interoceptive,0.01,True,asynchronous,0.5234716318370257,0.160286776597386,9,0,1
interoceptive,0.01,False,asynchronous,0.5440083480861556,0.0208269515765592,9,0,1
interoceptive,0.01,False,asynchronous,0.5369624994223482,0.07236530649826262,9,0,1
interoceptive,0.01,True,asynchronous,0.6379870920030997,0.141910940700875,9,0,1
interoceptive,0.01,True,asynchronous,0.33213509007244674,0.13731857705519757,9,0,1
interoceptive,0.01,True,asynchronous,0.4894169554750015,0.08200338059077361,9,0,1
interoceptive,0.01,False,synchronous,0.4313360537759235,0.07384292039265772,9,0,1
interoceptive,0.01,False,asynchronous,0.36159085249136386,0.20552404510022088,9,0,1
interoceptive,0.01,False,asynchronous,0.31159219371428304,0.012765207040318596,9,0,1
interoceptive,0.01,False,asynchronous,0.48649888919557177,0.14521393156987078,9,0,1
interoceptive,0.01,True,asynchronous,0.32469550033259575,0.08357082978473121,9,0,1
interoceptive,0.01,False,asynchronous,0.4366759747428708,0.03365990231580079,9,0,1
interoceptive,0.01,True,synchronous,0.3441138373500689,0.1369799436052701,9,0,1
