condition,contrast,is_synchronous,response,rt,detection_prob,participant_id,trial_num
exteroceptive,0.5,False,True,0.4942741591472272,0.43294767749150775,1,1
exteroceptive,0.45,True,False,0.623395891693221,0.3982210149361303,1,1
exteroceptive,0.49500000000000005,False,False,0.5151315513690137,0.5211181666461444,1,1
exteroceptive,0.5445000000000001,True,False,0.5571648199882548,0.5733403785224019,1,1
exteroceptive,0.5989500000000002,True,True,0.4777203398536721,0.6889884721352545,1,1
exteroceptive,0.5390550000000002,True,True,0.6219825996279615,0.4434812868395123,1,1
exteroceptive,0.4851495000000002,False,False,0.4276257411414839,0.36642947123428316,1,1
exteroceptive,0.5336644500000003,True,True,0.6266551820632915,0.821650768338722,1,1
exteroceptive,0.48029800500000025,False,False,0.3584488376427104,0.4029445198994892,1,1
exteroceptive,0.5283278055000004,True,False,0.63110779816123,0.6786747147809362,1,1
exteroceptive,0.5811605860500004,False,True,0.4108269515595423,0.6910498749699097,1,1
exteroceptive,0.5230445274450004,False,True,0.5286615598575325,0.6426105382853644,1,1
exteroceptive,0.4707400747005004,False,True,0.5837547823586421,0.449861372343812,1,1
exteroceptive,0.42366606723045036,True,False,0.5204501082021504,0.48250013980924294,1,1
exteroceptive,0.46603267395349546,False,True,0.44834611048410394,0.6155463950748103,1,1
exteroceptive,0.4194294065581459,False,True,0.6198594273328832,0.44615598469360424,1,1
exteroceptive,0.3774864659023313,False,True,0.3530581873971704,0.45993356734431506,1,1
exteroceptive,0.3397378193120982,True,False,0.30143368253003944,0.4696082831507925,1,1
exteroceptive,0.37371160124330804,True,True,0.5138286660710483,0.33180123629937747,1,1
exteroceptive,0.33634044111897726,True,True,0.6465047279753152,0.5270483450299943,1,1
exteroceptive,0.3027063970070795,True,True,0.5286341388393807,0.3793932740232123,1,1
exteroceptive,0.2724357573063716,False,False,0.5761888870112226,0.475432373000308,1,1
exteroceptive,0.2996793330370088,True,True,0.5352405995245872,0.5304031579357259,1,1
exteroceptive,0.26971139973330793,False,False,0.6683270255121596,0.49283624711149376,1,1
exteroceptive,0.29668253970663877,True,False,0.42498716065571224,0.2881971011913849,1,1
exteroceptive,0.3263507936773027,True,True,0.582110681273043,0.4840014765749776,1,1
exteroceptive,0.29371571430957244,True,False,0.38021007923054867,0.341777850032604,1,1
exteroceptive,0.3230872857405297,False,False,0.3375529604502471,0.5951166656621848,1,1
exteroceptive,0.3553960143145827,False,False,0.4531436474734574,0.12284922467151382,1,1
exteroceptive,0.39093561574604097,True,False,0.6540711734500856,0.40292140320297243,1,1
exteroceptive,0.4300291773206451,False,False,0.5047159558164485,0.31427021589874915,1,1
exteroceptive,0.47303209505270966,True,True,0.7220151882265886,0.45564871246372707,1,1
exteroceptive,0.4257288855474387,False,False,0.44039650916043427,0.5027262095353036,1,1
exteroceptive,0.4683017741021826,False,True,0.5190140222303887,0.48472779521347653,1,1
exteroceptive,0.4214715966919643,True,True,0.6000066492141709,0.48930635758631646,1,1
exteroceptive,0.3793244370227679,False,True,0.5454910761218813,0.3548940174416946,1,1
exteroceptive,0.34139199332049114,True,True,0.43900026271234877,0.3117066756242742,1,1
exteroceptive,0.307252793988442,True,True,0.6369968853459469,0.30748701137465156,1,1
exteroceptive,0.27652751458959784,True,False,0.33419806110308636,0.1397888435899177,1,1
exteroceptive,0.30418026604855763,False,True,0.5703916984413551,0.555317129715406,1,1
exteroceptive,0.27376223944370187,False,True,0.5191154960823553,0.46926927945651986,1,1
exteroceptive,0.2463860154993317,False,True,0.45890310699889636,0.3326277540793301,1,1
exteroceptive,0.22174741394939854,True,True,0.5339453913766811,0.304754135787883,1,1
exteroceptive,0.19957267255445868,True,False,0.5184043998710459,0.27437549950951523,1,1
exteroceptive,0.21952993980990457,False,False,0.643503474422678,0.30652287907179737,1,1
exteroceptive,0.24148293379089505,False,True,0.5376478528981264,0.1983724087173504,1,1
exteroceptive,0.21733464041180556,True,False,0.4940463776806946,0.30753909872442164,1,1
exteroceptive,0.23906810445298612,True,False,0.7513180996242628,0.3002378749598409,1,1
exteroceptive,0.2629749148982848,False,False,0.4884676607613256,0.2911068831190418,1,1
exteroceptive,0.2892724063881133,True,True,0.39704514050395995,0.31019562261107436,1,1
control,0.5,False,False,0.4887387311718533,0.561831868431803,1,1
control,0.55,False,False,0.5503326530457218,0.4806938514440523,1,1
control,0.6050000000000001,True,False,0.3651759620291346,0.7200251566471041,1,1
control,0.6655000000000002,False,True,0.4510729095970762,0.6002404912031698,1,1
control,0.5989500000000002,True,False,0.39248017010399155,0.38860345676997604,1,1
control,0.6588450000000002,False,False,0.4829866759176294,0.6202904179194337,1,1
control,0.7247295000000004,True,False,0.4500334824641755,0.7125080051814677,1,1
control,0.7972024500000005,False,True,0.5875160785663681,0.737098204983748,1,1
control,0.7174822050000004,False,True,0.44644939445765713,0.6233638878848433,1,1
control,0.6457339845000003,False,True,0.5930285237462901,0.6555717848950005,1,1
control,0.5811605860500003,False,False,0.41511035567283544,0.658757741252718,1,1
control,0.6392766446550004,False,False,0.4309857719401142,0.581491960791633,1,1
control,0.7032043091205006,True,False,0.5483561667242177,0.6456677913901999,1,1
control,0.7735247400325507,True,True,0.5556833228678578,0.49538506191281384,1,1
control,0.6961722660292956,False,False,0.5009582578547029,0.4519465197807543,1,1
control,0.7657894926322252,False,False,0.4845534599851194,0.6735457027915999,1,1
control,0.8423684418954478,True,True,0.4519602496107401,0.6809412900954925,1,1
control,0.758131597705903,True,True,0.6306256031625024,0.7457208627375568,1,1
control,0.6823184379353127,True,True,0.4391159579354001,0.575513121754649,1,1
control,0.6140865941417815,False,False,0.46578998673822314,0.6301717317460189,1,1
control,0.6754952535559596,True,False,0.43210207323302724,0.5993612229080553,1,1
control,0.7430447789115556,True,True,0.5471702786730495,0.3830299909486035,1,1
control,0.6687403010204,True,False,0.30175749435935073,0.715981231315665,1,1
control,0.7356143311224401,True,False,0.5091810326869944,0.5582832685878436,1,1
control,0.8091757642346842,False,False,0.48150734572202925,0.8456540028900071,1,1
control,0.8900933406581527,True,False,0.33403078605668934,0.7261692447007739,1,1
control,0.9791026747239681,True,True,0.3904156928529332,0.9124565453722067,1,1
control,0.8811924072515712,True,False,0.38745834023742626,0.5804750723671095,1,1
control,0.9693116479767284,False,True,0.5586802558025648,0.682518690174632,1,1
control,0.8723804831790556,False,False,0.5825121367883845,0.6033535618231511,1,1
control,0.9596185314969612,False,True,0.6554636805498546,0.7367224700924287,1,1
control,0.8636566783472651,True,True,0.46546144744712004,0.6207737193651589,1,1
control,0.7772910105125386,True,True,0.4748017682691441,0.6037050467277437,1,1
control,0.6995619094612847,True,True,0.5866992754465638,0.6443124821339093,1,1
control,0.6296057185151562,True,False,0.5355228360923717,0.597276221320559,1,1
control,0.6925662903666719,False,True,0.5153871970013854,0.4936527663321051,1,1
control,0.6233096613300048,True,True,0.4492911023636793,0.6725628178938063,1,1
control,0.5609786951970043,False,False,0.5017808203613939,0.47271981986132205,1,1
control,0.6170765647167048,True,True,0.6643201595680062,0.5102228357512018,1,1
control,0.5553689082450344,True,True,0.3873434757047356,0.7529203689346426,1,1
control,0.49983201742053096,True,True,0.49147768279676457,0.5788044838183741,1,1
control,0.4498488156784779,False,False,0.4409904594068119,0.5030848392250321,1,1
control,0.49483369724632575,False,True,0.507869418581604,0.4808892540761346,1,1
control,0.4453503275216932,False,False,0.5087997441225538,0.6222917342424197,1,1
control,0.48988536027386254,True,True,0.37083557107128884,0.33430571100046635,1,1
control,0.4408968242464763,False,False,0.5829172306712077,0.6365240872066429,1,1
control,0.484986506671124,False,True,0.46997797600100477,0.5328209726480476,1,1
control,0.4364878560040116,False,True,0.5053924480909868,0.46950217101724356,1,1
control,0.39283907040361044,False,False,0.47559574674453525,0.43475882027316065,1,1
control,0.4321229774439715,True,False,0.5651344131112254,0.5413310738315495,1,1
interoceptive,0.5,True,True,0.5412754149206832,0.5486511615500829,1,1
interoceptive,0.45,True,True,0.4322765798000493,0.40216892873991933,1,1
interoceptive,0.405,True,False,0.567792203430286,0.47134635394215885,1,1
interoceptive,0.44550000000000006,True,True,0.39031454831017043,0.5313000599366084,1,1
interoceptive,0.4009500000000001,False,True,0.6331667976487194,0.4872906146124114,1,1
interoceptive,0.3608550000000001,False,False,0.4666055999681045,0.17274304546867802,1,1
interoceptive,0.39694050000000014,True,False,0.5010755041355683,0.3662567976174536,1,1
interoceptive,0.4366345500000002,True,False,0.6046775540040283,0.39749238344363647,1,1
interoceptive,0.48029800500000025,True,True,0.2815573319434336,0.6155293717025323,1,1
interoceptive,0.43226820450000025,True,False,0.46792224230307716,0.4427239185639337,1,1
interoceptive,0.4754950249500003,True,True,0.6196005924342599,0.462678317019327,1,1
interoceptive,0.4279455224550003,True,True,0.41497730520298326,0.2572459190356631,1,1
interoceptive,0.3851509702095003,False,True,0.356781082758959,0.37587829192791045,1,1
interoceptive,0.34663587318855027,True,False,0.4859924930308797,0.22665987020967132,1,1
interoceptive,0.3812994605074053,True,True,0.4846215183834188,0.4470379178673626,1,1
interoceptive,0.34316951445666477,False,True,0.6645202699929539,0.2048330175630924,1,1
interoceptive,0.3088525630109983,False,False,0.3119228353048016,0.2431969415531819,1,1
interoceptive,0.3397378193120981,True,True,0.5050650235681886,0.26515182015539895,1,1
interoceptive,0.3057640373808883,False,False,0.40835820756808255,0.4799201696975185,1,1
interoceptive,0.33634044111897715,False,False,0.3873437532114653,0.28804181899945047,1,1
interoceptive,0.3699744852308749,False,True,0.5523390704295711,0.4563017961230421,1,1
interoceptive,0.3329770367077874,True,False,0.47123931113406325,0.33687738405075396,1,1
interoceptive,0.36627474037856617,False,True,0.4310895106109159,0.3474242354713409,1,1
interoceptive,0.32964726634070957,False,False,0.3619162409266831,0.27484796985152526,1,1
interoceptive,0.36261199297478053,True,False,0.4751386992494696,0.2965965789439915,1,1
interoceptive,0.3988731922722586,False,False,0.7083582530358795,0.3308703092383676,1,1
interoceptive,0.4387605114994845,False,True,0.7060850217004443,0.36337109579005,1,1
interoceptive,0.39488446034953606,False,False,0.5339232996542185,0.36939898554270595,1,1
interoceptive,0.4343729063844897,False,False,0.6290708721091639,0.33476033295534036,1,1
interoceptive,0.47781019702293875,True,True,0.3142493342436026,0.4289579474839582,1,1
interoceptive,0.4300291773206449,True,False,0.5619218444726447,0.3367074778520232,1,1
interoceptive,0.47303209505270943,True,True,0.5254358894506056,0.5979166394678979,1,1
interoceptive,0.4257288855474385,False,False,0.5951629436314902,0.3442834819211046,1,1
interoceptive,0.4683017741021824,True,True,0.46529985373292726,0.4707006644386143,1,1
interoceptive,0.42147159669196416,True,True,0.46087168065006795,0.5772973850580283,1,1
interoceptive,0.37932443702276775,False,False,0.3015408381245237,0.2141588753378957,1,1
interoceptive,0.4172568807250446,False,True,0.40091247503280386,0.35885264617341295,1,1
interoceptive,0.37553119265254015,True,True,0.5450953921973967,0.30120408310227453,1,1
interoceptive,0.33797807338728614,True,False,0.4351239310664146,0.14376638165967118,1,1
interoceptive,0.3717758807260148,True,False,0.5039742907825605,0.3703053391365895,1,1
interoceptive,0.4089534687986163,True,False,0.48958424204342477,0.2950260674354047,1,1
interoceptive,0.449848815678478,True,False,0.5724052295843193,0.35206209757477513,1,1
interoceptive,0.49483369724632587,True,True,0.6636228216241706,0.6429630550329042,1,1
interoceptive,0.4453503275216933,True,True,0.33768952309164857,0.6598469515742611,1,1
interoceptive,0.400815294769524,False,False,0.45294496764651593,0.46657986642024313,1,1
interoceptive,0.4408968242464764,False,False,0.42592940767235143,0.17102517451570298,1,1
interoceptive,0.4849865066711241,False,False,0.5051063769715781,0.4677817615240057,1,1
interoceptive,0.5334851573382365,False,True,0.6278446912347441,0.5644650285174415,1,1
interoceptive,0.4801366416044129,False,True,0.3529347110600096,0.4065398515775317,1,1
interoceptive,0.4321229774439716,False,False,0.42708586658701503,0.3738812229915566,1,1
interoceptive,0.4753352751883688,True,False,0.6048662471515186,0.3010851343889164,2,1
interoceptive,0.5228688027072057,True,False,0.40762177908699315,0.4200337063892804,2,1
interoceptive,0.5751556829779263,True,True,0.5981217145905064,0.5916329893968989,2,1
interoceptive,0.5176401146801337,True,False,0.5601417824389036,0.7328809773862364,2,1
interoceptive,0.5694041261481472,False,True,0.46847729612050837,0.6217665584044576,2,1
interoceptive,0.5124637135333324,False,False,0.39904260036156997,0.6629787067517883,2,1
interoceptive,0.5637100848866657,True,False,0.454722766198008,0.5366728372640475,2,1
interoceptive,0.6200810933753323,True,True,0.4850942894209055,0.6109303778073275,2,1
interoceptive,0.5580729840377991,False,True,0.3744129060001332,0.5919694115817187,2,1
interoceptive,0.5022656856340193,False,True,0.6881570965433139,0.5134704637019584,2,1
interoceptive,0.4520391170706174,True,False,0.6980356110176893,0.4653886728034084,2,1
interoceptive,0.4972430287776792,True,False,0.48130372865137094,0.5897074759838198,2,1
interoceptive,0.5469673316554471,False,True,0.5335493873753453,0.5130141825082414,2,1
interoceptive,0.4922705984899024,False,False,0.28705952468816287,0.46393837840661,2,1
interoceptive,0.5414976583388926,False,True,0.4958031658220466,0.5303756417423344,2,1
interoceptive,0.4873478925050034,False,False,0.3519650231821737,0.3889681238769407,2,1
interoceptive,0.5360826817555038,True,True,0.6340992174542266,0.5380537124038314,2,1
interoceptive,0.4824744135799534,True,True,0.49565210697075046,0.48344921564306703,2,1
interoceptive,0.43422697222195805,False,True,0.49678991698284924,0.5398737379154263,2,1
interoceptive,0.3908042749997623,False,True,0.653587611144668,0.2986875528826646,2,1
interoceptive,0.3517238474997861,False,False,0.5442589968990911,0.1735262534984585,2,1
interoceptive,0.3868962322497647,False,False,0.4793664462562106,0.4600240070759049,2,1
interoceptive,0.4255858554747412,False,False,0.5170025809204141,0.3309115071990661,2,1
interoceptive,0.46814444102221536,False,False,0.5946286369116063,0.4812502685748218,2,1
interoceptive,0.514958885124437,False,True,0.5494645330013777,0.35479535127624506,2,1
interoceptive,0.4634629966119933,False,True,0.5214563160412636,0.4146594255678613,2,1
interoceptive,0.417116696950794,False,False,0.6853382515606705,0.11584450332504559,2,1
interoceptive,0.45882836664587345,True,True,0.48087471735611753,0.39806919784023975,2,1
interoceptive,0.41294552998128614,False,False,0.5486383016183163,0.45218718566470123,2,1
interoceptive,0.4542400829794148,True,True,0.45263110948943397,0.5123839466691508,2,1
interoceptive,0.40881607468147335,False,True,0.5219244441051818,0.5154163807113685,2,1
interoceptive,0.367934467213326,False,False,0.5549672714076399,0.3511580893355053,2,1
interoceptive,0.4047279139346586,True,False,0.42179619997343143,0.34046912680250463,2,1
interoceptive,0.4452007053281245,False,True,0.4178239796456296,0.47369250148751313,2,1
interoceptive,0.4006806347953121,True,True,0.7281308466136157,0.2805494700499258,2,1
interoceptive,0.3606125713157809,False,False,0.4298041833231378,0.2144985739194196,2,1
interoceptive,0.396673828447359,False,False,0.4010987826337723,0.4643970643526935,2,1
interoceptive,0.4363412112920949,True,True,0.6629000963009537,0.5417284724084526,2,1
interoceptive,0.3927070901628854,True,False,0.5992438818630862,0.4832711157124132,2,1
interoceptive,0.431977799179174,True,True,0.4222603605556461,0.34933227424680785,2,1
interoceptive,0.3887800192612566,False,False,0.4328970009921219,0.329901668343492,2,1
interoceptive,0.4276580211873823,True,True,0.3216645867088952,0.4373778930004992,2,1
interoceptive,0.38489221906864407,True,False,0.43507458903892227,0.3960480936597779,2,1
interoceptive,0.4233814409755085,False,False,0.4591604949334506,0.41165924495077644,2,1
interoceptive,0.4657195850730594,True,False,0.47771590015474613,0.40516610856389784,2,1
interoceptive,0.5122915435803653,False,False,0.40685972535614956,0.5957150870712344,2,1
interoceptive,0.5635206979384019,False,True,0.42245448434903227,0.539060527416297,2,1
interoceptive,0.5071686281445617,False,False,0.6970831264879459,0.5097176700722359,2,1
interoceptive,0.5578854909590178,False,False,0.31074366524780084,0.4423537579969713,2,1
interoceptive,0.6136740400549197,False,True,0.3791697761902839,0.4604099182302751,2,1
control,0.47533527518836866,False,True,0.5354779886003502,0.3857093358370027,2,1
control,0.4278017476695318,False,True,0.5688202276825566,0.4296655841761734,2,1
control,0.3850215729025786,True,True,0.409467811075976,0.49121468679347413,2,1
control,0.34651941561232075,False,False,0.7780062784676287,0.35295367550664336,2,1
control,0.3811713571735528,True,True,0.5151693872963318,0.3429912460748179,2,1
control,0.34305422145619757,True,False,0.33396203307147876,0.379273748942827,2,1
control,0.37735964360181734,False,False,0.4198378069238724,0.2217951076758183,2,1
control,0.4150956079619991,True,False,0.5418505218252911,0.4746309849987003,2,1
control,0.45660516875819906,True,True,0.6102110292515484,0.4238578527246035,2,1
control,0.41094465188237916,False,False,0.6478868285733379,0.3428427217181418,2,1
control,0.4520391170706171,True,False,0.548852767698124,0.5396575009339042,2,1
control,0.49724302877767884,False,True,0.512374377252831,0.5042885663708639,2,1
control,0.447518725899911,True,False,0.5102193870715145,0.5620735065307284,2,1
control,0.4922705984899021,True,False,0.5447854510435334,0.4738248530446677,2,1
control,0.5414976583388924,False,True,0.6038466977557845,0.6121980057744448,2,1
control,0.48734789250500316,True,False,0.5085939833417346,0.4525615926601512,2,1
control,0.5360826817555036,False,True,0.5906240742943203,0.5203094916861408,2,1
control,0.4824744135799532,False,True,0.41532976211073436,0.6080295267545263,2,1
control,0.4342269722219579,True,True,0.6732771394350553,0.6183751990250241,2,1
control,0.3908042749997621,False,True,0.43546906113708633,0.7058017093278622,2,1
control,0.3517238474997859,True,False,0.33512539990776913,0.38346586745706285,2,1
control,0.38689623224976455,False,False,0.5878759279739546,0.5626118564869727,2,1
control,0.42558585547474104,True,False,0.5203444852274234,0.32029865426106296,2,1
control,0.4681444410222152,False,True,0.4717667568595829,0.4099492358544216,2,1
control,0.4213299969199937,True,True,0.2747146853065737,0.4950766915421531,2,1
control,0.3791969972279943,False,False,0.595871316083772,0.26463110463612255,2,1
control,0.4171166969507938,True,False,0.45819338705745616,0.36450271875724316,2,1
control,0.4588283666458732,False,False,0.49747162701641146,0.41907679169289214,2,1
control,0.5047112033104605,True,True,0.6692084425040323,0.5624963967314343,2,1
control,0.45424008297941443,False,True,0.6994709582827124,0.5306868379707975,2,1
control,0.408816074681473,True,True,0.7133604472203808,0.4588934331583321,2,1
control,0.36793446721332573,False,False,0.5213175402116408,0.3199162062635033,2,1
control,0.40472791393465835,True,True,0.41063626207433496,0.40206585946375956,2,1
control,0.3642551225411925,False,True,0.33763236857100243,0.5165662396669777,2,1
control,0.3278296102870733,False,False,0.49539660523575946,0.3571587938577281,2,1
control,0.3606125713157807,False,False,0.6166404678176536,0.5693151937259917,2,1
control,0.39667382844735877,True,False,0.4768683311500738,0.3030116466553344,2,1
control,0.4363412112920947,False,True,0.3640925698176748,0.6066345029001836,2,1
control,0.39270709016288524,False,False,0.5874391592729262,0.39456556492876455,2,1
control,0.4319777991791738,False,True,0.34452009239737297,0.5141916900286546,2,1
control,0.38878001926125644,False,True,0.4224374752764271,0.4952289989840653,2,1
control,0.3499020173351308,False,False,0.3868748353479505,0.27917867090855586,2,1
control,0.38489221906864396,True,False,0.549692531540716,0.2727860897577539,2,1
control,0.4233814409755084,True,False,0.3688418804384289,0.584690236752395,2,1
control,0.4657195850730593,True,False,0.5712187742595137,0.512700556787069,2,1
control,0.5122915435803652,True,False,0.2349270024677486,0.46595340330854407,2,1
control,0.5635206979384018,False,True,0.541886804820951,0.4835238048259476,2,1
control,0.5071686281445617,True,True,0.5690941090029435,0.6681823231210546,2,1
control,0.4564517653301055,True,True,0.7166579948604057,0.5042530689697237,2,1
control,0.410806588797095,True,False,0.4458370717825373,0.4786614227093464,2,1
exteroceptive,0.260345165749302,False,False,0.5883656964809401,0.21910345160167233,2,1
exteroceptive,0.2863796823242322,True,False,0.5790372353275736,0.41257824667029375,2,1
exteroceptive,0.3150176505566555,True,False,0.5111989369607033,0.2541368145211449,2,1
exteroceptive,0.3465194156123211,True,False,0.570474945928838,0.5650310676152416,2,1
exteroceptive,0.3811713571735532,True,False,0.6497525493348882,0.4411928237312781,2,1
exteroceptive,0.4192884928909086,True,True,0.5453266878273315,0.33084051801666864,2,1
exteroceptive,0.37735964360181773,False,True,0.5520350632248234,0.4973060056899134,2,1
exteroceptive,0.33962367924163595,False,False,0.46598529390223914,0.34586388426799475,2,1
exteroceptive,0.3735860471657996,False,True,0.34460795897122243,0.32356080408442567,2,1
exteroceptive,0.33622744244921965,True,False,0.6584258333950159,0.2547828433232392,2,1
exteroceptive,0.36985018669414166,False,True,0.5081273930166682,0.4130617406595308,2,1
exteroceptive,0.3328651680247275,False,True,0.39525936441562803,0.4760848866984202,2,1
exteroceptive,0.29957865122225474,False,False,0.619120108298297,0.4460031231105602,2,1
exteroceptive,0.3295365163444802,True,True,0.3524475717167679,0.33896475398070736,2,1
exteroceptive,0.2965828647100322,True,True,0.4669543166159516,0.3639352417869052,2,1
exteroceptive,0.266924578239029,True,False,0.48622734389189554,0.24283458660035656,2,1
exteroceptive,0.29361703606293194,False,True,0.41768347870135947,0.35514894846305367,2,1
exteroceptive,0.26425533245663874,True,False,0.4212362390725018,0.4505904877722676,2,1
exteroceptive,0.2906808657023026,False,True,0.38632121201028924,0.31728843150881847,2,1
exteroceptive,0.26161277913207237,False,True,0.4749571507594823,0.11530530741248121,2,1
exteroceptive,0.23545150121886513,False,False,0.3706676233809681,0.23281188592026034,2,1
exteroceptive,0.25899665134075167,False,False,0.45515535593517686,0.3868873633364183,2,1
exteroceptive,0.2848963164748269,False,False,0.4106289507552758,0.2910364408181916,2,1
exteroceptive,0.3133859481223096,True,False,0.5713026762426031,0.5078363392619473,2,1
exteroceptive,0.3447245429345406,False,True,0.5863083087543655,0.38958575456145234,2,1
exteroceptive,0.31025208864108655,True,False,0.575934264606636,0.22593146850919377,2,1
exteroceptive,0.34127729750519525,False,True,0.45060471385754236,0.30515202157648913,2,1
exteroceptive,0.3071495677546757,False,False,0.5822284552552481,0.3086817048029009,2,1
exteroceptive,0.3378645245301433,False,True,0.346962809330991,0.4640811282607416,2,1
exteroceptive,0.304078072077129,True,True,0.43078299674788945,0.18813868324868863,2,1
exteroceptive,0.2736702648694161,False,True,0.47629309801615904,0.5373808206042139,2,1
exteroceptive,0.24630323838247448,False,True,0.469117099287553,0.3064706466455691,2,1
exteroceptive,0.22167291454422702,True,False,0.46548286951261114,0.2417201814443252,2,1
exteroceptive,0.24384020599864975,False,False,0.5869569344492298,0.30533535125585176,2,1
exteroceptive,0.26822422659851475,False,False,0.4356927253132923,0.1643837625711989,2,1
exteroceptive,0.29504664925836627,False,False,0.5866528992708755,0.4612351910510649,2,1
exteroceptive,0.3245513141842029,False,False,0.37437028454237153,0.4282012250617064,2,1
exteroceptive,0.35700644560262323,False,False,0.4337595439507259,0.42159414898237324,2,1
exteroceptive,0.3927070901628856,False,False,0.38766998060549585,0.4169873737362795,2,1
exteroceptive,0.43197779917917417,False,False,0.7090569443548145,0.5352933939282877,2,1
exteroceptive,0.4751755790970916,True,True,0.583375224841709,0.5865601993861125,2,1
exteroceptive,0.4276580211873825,False,True,0.5519521617703557,0.5082498380631779,2,1
exteroceptive,0.38489221906864424,False,False,0.3558065836144878,0.26073831918436574,2,1
exteroceptive,0.42338144097550867,True,False,0.44660574837544853,0.4752026027260061,2,1
exteroceptive,0.46571958507305955,False,True,0.511272878489818,0.5783561221186752,2,1
exteroceptive,0.4191476265657536,False,True,0.5905307662308321,0.6349513786597502,2,1
exteroceptive,0.37723286390917826,True,False,0.615363476506211,0.29102170018958606,2,1
exteroceptive,0.41495615030009614,True,False,0.6624033576612557,0.3552566295370515,2,1
exteroceptive,0.4564517653301058,True,False,0.48333995778871797,0.5412196039092976,2,1
exteroceptive,0.5020969418631164,True,True,0.48346027083769644,0.5340601760376731,2,1
exteroceptive,0.45188724767680477,True,False,0.5732171524087205,0.4450947509243485,3,1
exteroceptive,0.4970759724444853,False,False,0.35710824184286083,0.5316245584452625,3,1
exteroceptive,0.5467835696889339,False,False,0.5241447401293484,0.5330575706751123,3,1
exteroceptive,0.6014619266578274,True,True,0.4654231721643585,0.6285839427540351,3,1
exteroceptive,0.5413157339920447,True,True,0.45249112428276506,0.34642641886186476,3,1
exteroceptive,0.48718416059284025,True,False,0.443356893130092,0.3704852566428856,3,1
exteroceptive,0.5359025766521244,False,False,0.3897276237759145,0.3400148439292392,3,1
exteroceptive,0.5894928343173369,True,True,0.5069681153195759,0.6166732625146963,3,1
exteroceptive,0.5305435508856032,False,False,0.574485758797852,0.39038461284533765,3,1
exteroceptive,0.5835979059741636,True,True,0.5056248772931586,0.8601742527732779,3,1
exteroceptive,0.5252381153767472,False,False,0.462236707921867,0.5832087432795113,3,1
exteroceptive,0.5777619269144221,False,False,0.3102017221297737,0.46601919912325357,3,1
exteroceptive,0.6355381196058644,True,True,0.44309312450293453,0.5238890512285644,3,1
exteroceptive,0.571984307645278,False,False,0.5528945049465506,0.6116100113904557,3,1
exteroceptive,0.6291827384098058,False,False,0.5955921818461277,0.5846271446300799,3,1
exteroceptive,0.6921010122507864,False,False,0.5214860801065591,0.7200390104737863,3,1
exteroceptive,0.761311113475865,False,True,0.5343332482403846,0.6972823171840872,3,1
exteroceptive,0.6851800021282786,True,True,0.5750472268229307,0.6226523181892712,3,1
exteroceptive,0.6166620019154507,True,True,0.3970038545646752,0.4717292348365224,3,1
exteroceptive,0.5549958017239057,False,True,0.4226836614428751,0.5421810377492262,3,1
exteroceptive,0.4994962215515152,True,False,0.45523571405103647,0.5520621199298692,3,1
exteroceptive,0.5494458437066667,True,False,0.6320895521442174,0.5670238427067739,3,1
exteroceptive,0.6043904280773335,True,False,0.4937754460342627,0.6620254309113853,3,1
exteroceptive,0.6648294708850668,True,True,0.5247576986544693,0.5968874274231789,3,1
exteroceptive,0.5983465237965602,False,False,0.522344436347923,0.663017538441262,3,1
exteroceptive,0.6581811761762162,True,True,0.6312409946641159,0.6528885440344084,3,1
exteroceptive,0.5923630585585946,True,True,0.47486469313278257,0.6530095837297217,3,1
exteroceptive,0.5331267527027351,True,False,0.3797627352117394,0.2604170437563049,3,1
exteroceptive,0.5864394279730087,True,True,0.6367468169546656,0.6583349461792972,3,1
exteroceptive,0.5277954851757078,True,False,0.3578524236952065,0.3297296749736962,3,1
exteroceptive,0.5805750336932787,False,True,0.42816927731774723,0.7009860984193692,3,1
exteroceptive,0.5225175303239509,False,False,0.38006892775651574,0.36162278782289614,3,1
exteroceptive,0.574769283356346,True,False,0.4657628756640967,0.377143935332066,3,1
exteroceptive,0.6322462116919807,False,False,0.4753892695185911,0.5223044011501667,3,1
exteroceptive,0.6954708328611788,False,False,0.47599578373298435,0.7217515508457955,3,1
exteroceptive,0.7650179161472968,True,True,0.5667876949868393,0.6610365389612827,3,1
exteroceptive,0.688516124532567,True,True,0.3674750175727382,0.592868509331,3,1
exteroceptive,0.6196645120793104,True,False,0.5272908486339222,0.35236861645760664,3,1
exteroceptive,0.6816309632872415,False,False,0.5504464059952516,0.4455621944426573,3,1
exteroceptive,0.7497940596159657,True,True,0.588612844450096,0.6167480722420741,3,1
exteroceptive,0.6748146536543691,True,False,0.4591179277699946,0.5051879048030121,3,1
exteroceptive,0.7422961190198061,True,False,0.5218824301224091,0.7116638919530838,3,1
exteroceptive,0.8165257309217867,False,False,0.5986580666279491,0.7384432983294303,3,1
exteroceptive,0.8981783040139655,True,True,0.4459774304793848,0.8638228083578315,3,1
exteroceptive,0.8083604736125689,True,True,0.40539128980710093,0.5793640344205764,3,1
exteroceptive,0.7275244262513121,False,True,0.5480168617585762,0.6895101704555834,3,1
exteroceptive,0.6547719836261809,False,True,0.7150926426383077,0.5702031879780073,3,1
exteroceptive,0.5892947852635628,True,False,0.5741143443687606,0.46836150246659825,3,1
exteroceptive,0.6482242637899192,False,True,0.3857507380938236,0.7395960413004468,3,1
exteroceptive,0.5834018374109272,False,True,0.4247467963791249,0.6355386681359727,3,1
control,0.4518872476768045,True,False,0.4775216325803679,0.49144075947885896,3,1
control,0.497075972444485,True,False,0.32709314851053534,0.6092110599916434,3,1
control,0.5467835696889335,True,True,0.38193348442639696,0.5256977943791554,3,1
control,0.49210521272004015,False,False,0.32895569536870956,0.43144585765268434,3,1
control,0.5413157339920442,True,False,0.3423298242634532,0.4723228066396933,3,1
control,0.5954473073912487,False,False,0.6315696717607869,0.4969358344586234,3,1
control,0.6549920381303737,True,True,0.6138943685147986,0.643863118686514,3,1
control,0.5894928343173363,True,True,0.4680176728766963,0.49217323302515503,3,1
control,0.5305435508856027,True,False,0.4051268344955674,0.6014967736611477,3,1
control,0.583597905974163,True,False,0.48260941764333665,0.6056636820888571,3,1
control,0.6419576965715793,True,True,0.7073401755041834,0.5012457414925969,3,1
control,0.5777619269144214,True,False,0.351990204933536,0.4856430787688537,3,1
control,0.6355381196058636,False,False,0.5511616914877386,0.5272434182748301,3,1
control,0.69909193156645,True,False,0.4816297564772349,0.5583502897173849,3,1
control,0.769001124723095,True,False,0.4825445806008428,0.5995214365827308,3,1
control,0.8459012371954046,False,False,0.6959906600030012,0.5898152261252061,3,1
control,0.9304913609149451,True,False,0.4637115073887893,0.6945213968897801,3,1
control,1.0,False,True,0.6532317308977783,0.7270812179753565,3,1
control,0.9,True,False,0.5112442382738428,0.7736702182807617,3,1
control,0.9900000000000001,False,True,0.3912057806552643,0.816597880296734,3,1
control,0.8910000000000001,False,False,0.4606866488047931,0.6966687860548915,3,1
control,0.9801000000000002,True,True,0.5488794987798143,0.6914460228853082,3,1
control,0.8820900000000002,False,True,0.42810394365538074,0.7262626352236485,3,1
control,0.7938810000000002,False,True,0.41269482125150037,0.7698458424771943,3,1
control,0.7144929000000002,True,False,0.46276630846558475,0.5786025908539917,3,1
control,0.7859421900000003,False,False,0.4478149445006113,0.836012646934294,3,1
control,0.8645364090000004,False,True,0.573753221756428,0.6572759317692274,3,1
control,0.7780827681000003,False,True,0.46254396861986363,0.6166756525417785,3,1
control,0.7002744912900003,False,False,0.4884102355920593,0.4395759451369856,3,1
control,0.7703019404190004,True,True,0.4534453823689017,0.5195361927799016,3,1
control,0.6932717463771003,False,True,0.45214222651622044,0.5998780315123281,3,1
control,0.6239445717393903,True,False,0.7305305837873044,0.4049023660136575,3,1
control,0.6863390289133294,False,False,0.393775283533416,0.4681755499975069,3,1
control,0.7549729318046624,False,False,0.46623324519953907,0.745258930188123,3,1
control,0.8304702249851287,True,False,0.4916096098269707,0.6418180979534583,3,1
control,0.9135172474836416,True,False,0.5131025353790114,0.7376980624240228,3,1
control,1.0,False,True,0.4095456210358454,0.9042899792620808,3,1
control,0.9,False,True,0.5186550124997382,0.7732155354954404,3,1
control,0.81,True,True,0.29255924179000514,0.5822163113686645,3,1
control,0.7290000000000001,True,True,0.5520679263702637,0.6186384458032266,3,1
control,0.6561000000000001,False,False,0.33383564451258435,0.5896288093807226,3,1
control,0.7217100000000002,False,True,0.4661422447078031,0.737093668848405,3,1
control,0.6495390000000002,False,True,0.44531558186667325,0.6594012099493808,3,1
control,0.5845851000000002,True,True,0.5248474007640391,0.5324845382038369,3,1
control,0.5261265900000002,False,False,0.6127694755550588,0.6405911714779446,3,1
control,0.5787392490000003,False,False,0.578218415432099,0.6189875110674518,3,1
control,0.6366131739000004,True,True,0.5187566383086538,0.6159297662463129,3,1
control,0.5729518565100004,False,False,0.5361459199467188,0.4220997485394029,3,1
control,0.6302470421610005,True,False,0.521411520268618,0.3861634710883212,3,1
control,0.6932717463771005,True,False,0.40978035444056643,0.5700376383281602,3,1
interoceptive,0.5523066360494278,True,True,0.466228332534462,0.6416659735304657,3,1
interoceptive,0.497075972444485,False,True,0.4376003196212541,0.6161419783472559,3,1
interoceptive,0.44736837520003647,False,True,0.5450647106644549,0.5508754538883567,3,1
interoceptive,0.40263153768003285,False,False,0.5919341007470688,0.3032431873878067,3,1
interoceptive,0.44289469144803617,True,False,0.5527695104499473,0.3593352371735381,3,1
interoceptive,0.4871841605928398,True,True,0.5292605128904613,0.46635215858090884,3,1
interoceptive,0.43846574453355586,False,False,0.4280361723810619,0.3910104502336698,3,1
interoceptive,0.48231231898691146,True,False,0.629809501611402,0.5254334722971781,3,1
interoceptive,0.5305435508856027,False,True,0.6388487035708683,0.6668979402828666,3,1
interoceptive,0.4774891957970424,True,False,0.364339469947559,0.553756514429816,3,1
interoceptive,0.5252381153767467,False,False,0.549490070313544,0.5584970379872284,3,1
interoceptive,0.5777619269144214,False,False,0.5436996700468064,0.5506361776064439,3,1
interoceptive,0.6355381196058636,True,True,0.4782253949546006,0.795834780284304,3,1
interoceptive,0.5719843076452773,False,False,0.5292945402445682,0.6221001055424702,3,1
interoceptive,0.6291827384098051,False,True,0.37717162409262617,0.7118448795564345,3,1
interoceptive,0.5662644645688246,False,False,0.39710073955508757,0.3841476733504414,3,1
interoceptive,0.6228909110257072,False,False,0.46928893515484227,0.5299064771655873,3,1
interoceptive,0.6851800021282779,True,True,0.6037632297752724,0.7526822736237404,3,1
interoceptive,0.6166620019154502,True,False,0.3229569560356034,0.5891213341609478,3,1
interoceptive,0.6783282021069953,True,True,0.4370571765941481,0.6764103922326951,3,1
interoceptive,0.6104953818962958,True,True,0.6052957227456899,0.7579117719187715,3,1
interoceptive,0.5494458437066663,True,True,0.6110372330745089,0.6509273135526024,3,1
interoceptive,0.49450125933599964,False,True,0.5094495500570636,0.6433617494843388,3,1
interoceptive,0.4450511334023997,False,True,0.5426690446140591,0.2370942501915009,3,1
interoceptive,0.4005460200621597,True,False,0.43647888322654155,0.323366013149782,3,1
interoceptive,0.44060062206837575,True,False,0.451261123982668,0.3951146089370979,3,1
interoceptive,0.48466068427521336,True,True,0.6573435952127393,0.4731420353149791,3,1
interoceptive,0.43619461584769204,False,False,0.33504124743953206,0.3715608899264132,3,1
interoceptive,0.4798140774324613,True,False,0.5391024708406117,0.28653664505798754,3,1
interoceptive,0.5277954851757075,True,False,0.3592099894444042,0.390881688863597,3,1
interoceptive,0.5805750336932783,False,True,0.4942818505901942,0.6518784655086067,3,1
interoceptive,0.5225175303239505,True,False,0.5691626435041662,0.4799222224130356,3,1
interoceptive,0.5747692833563457,False,False,0.6373466331259414,0.566592401493291,3,1
interoceptive,0.6322462116919804,False,True,0.4685791253197507,0.7230498559049766,3,1
interoceptive,0.5690215905227823,False,True,0.4945552391069059,0.7004880540889964,3,1
interoceptive,0.5121194314705041,True,True,0.5848410581086362,0.5861942963378028,3,1
interoceptive,0.4609074883234537,False,True,0.5370691315063556,0.5070517816056369,3,1
interoceptive,0.4148167394911083,True,False,0.5427160915036506,0.2247508413138944,3,1
interoceptive,0.45629841344021915,True,True,0.620640090891538,0.5725925768528863,3,1
interoceptive,0.4106685720961972,False,False,0.4713421266450606,0.4011806065494305,3,1
interoceptive,0.451735429305817,False,False,0.5490484529140311,0.4552502742133228,3,1
interoceptive,0.49690897223639874,True,True,0.5100712223108138,0.44195938949156,3,1
interoceptive,0.4472180750127589,True,False,0.47546159893843926,0.3646735180322072,3,1
interoceptive,0.4919398825140348,True,False,0.4980581814048048,0.6500757477009133,3,1
interoceptive,0.5411338707654383,True,True,0.5792597668407042,0.6308618998444551,3,1
interoceptive,0.48702048368889445,False,True,0.47837734169661117,0.38781720790357255,3,1
interoceptive,0.43831843532000503,True,False,0.42159526754322935,0.4752429768155443,3,1
interoceptive,0.48215027885200556,True,False,0.40075117292855605,0.493507614258125,3,1
interoceptive,0.5303653067372062,True,True,0.5510031114507432,0.35816517093738753,3,1
interoceptive,0.47732877606348556,True,False,0.5496809487657439,0.4497059773228839,3,1
exteroceptive,0.5250616536698345,True,True,0.4879112518187125,0.6340828922508475,4,1
exteroceptive,0.47255548830285105,False,True,0.5134366809068068,0.6567478207399997,4,1
exteroceptive,0.42529993947256595,True,False,0.25073604679961325,0.5045842623778665,4,1
exteroceptive,0.4678299334198226,True,False,0.5101267349397465,0.438716677658074,4,1
exteroceptive,0.5146129267618049,False,True,0.3807473720522095,0.5937247146893224,4,1
exteroceptive,0.46315163408562443,True,True,0.3823251262542927,0.4456575067850195,4,1
exteroceptive,0.416836470677062,True,True,0.4899700967569886,0.3916865887972329,4,1
exteroceptive,0.3751528236093558,True,False,0.5000412212706794,0.5314777938365921,4,1
exteroceptive,0.4126681059702914,True,False,0.44023993691003027,0.43016861213922913,4,1
exteroceptive,0.4539349165673206,True,False,0.5011392772907746,0.3689223481647654,4,1
exteroceptive,0.4993284082240527,True,True,0.5656619003258199,0.5908232482698493,4,1
exteroceptive,0.44939556740164743,False,False,0.5452667423365147,0.4819191212157707,4,1
exteroceptive,0.49433512414181224,False,True,0.5893785939888003,0.5087460539202189,4,1
exteroceptive,0.44490161172763104,True,False,0.6455536728007281,0.5935103106377337,4,1
exteroceptive,0.4893917729003942,False,False,0.7010989921273585,0.4313980617097084,4,1
exteroceptive,0.5383309501904336,True,True,0.4091079627476748,0.46762401858709596,4,1
exteroceptive,0.48449785517139027,True,False,0.27287100716661294,0.3992996058484468,4,1
exteroceptive,0.5329476406885293,False,True,0.545489535002872,0.5560388860259501,4,1
exteroceptive,0.47965287661967637,False,False,0.47263176717508576,0.32115643368765545,4,1
exteroceptive,0.5276181642816441,False,True,0.34703039452539164,0.43133626021379656,4,1
exteroceptive,0.4748563478534797,False,False,0.6204548904467624,0.44250852299046917,4,1
exteroceptive,0.5223419826388277,True,False,0.3085000479274624,0.6163486452528191,4,1
exteroceptive,0.5745761809027106,True,False,0.5558873824923684,0.49475375505824515,4,1
exteroceptive,0.6320337989929816,False,False,0.5527160218963926,0.6390855481541914,4,1
exteroceptive,0.6952371788922799,False,True,0.329254517166529,0.7095961551094042,4,1
exteroceptive,0.6257134610030519,True,False,0.31880712384785026,0.7884892290252419,4,1
exteroceptive,0.6882848071033572,True,True,0.747876529904582,0.6800384584224093,4,1
exteroceptive,0.6194563263930215,False,True,0.5932192415057482,0.6065932880034504,4,1
exteroceptive,0.5575106937537194,False,True,0.7044268495409861,0.5970068017484711,4,1
exteroceptive,0.5017596243783475,False,True,0.6326609989001784,0.40597796232619393,4,1
exteroceptive,0.4515836619405128,True,False,0.28612981190176834,0.5025481154480297,4,1
exteroceptive,0.49674202813456414,True,True,0.5462110246987737,0.5421381094165216,4,1
exteroceptive,0.4470678253211077,True,False,0.5339309911973306,0.5196221453119194,4,1
exteroceptive,0.4917746078532185,True,True,0.4626722848051412,0.602062623527618,4,1
exteroceptive,0.44259714706789666,False,True,0.42045707696498885,0.45807503778943776,4,1
exteroceptive,0.398337432361107,False,True,0.7996056873170774,0.37771811286350704,4,1
exteroceptive,0.3585036891249963,True,False,0.37531856607415104,0.35596914195635704,4,1
exteroceptive,0.39435405803749596,False,False,0.6049343885310645,0.20336610300927022,4,1
exteroceptive,0.4337894638412456,True,False,0.7053537503744891,0.2329202077076578,4,1
exteroceptive,0.4771684102253702,False,False,0.5403019831155027,0.4802775040859334,4,1
exteroceptive,0.5248852512479073,False,False,0.5586599415823615,0.4755480242736533,4,1
exteroceptive,0.577373776372698,True,False,0.5328463185283485,0.6712882026866474,4,1
exteroceptive,0.6351111540099679,True,False,0.4585338974410921,0.6660073958822739,4,1
exteroceptive,0.6986222694109647,False,True,0.5679954959923721,0.5941289532570212,4,1
exteroceptive,0.6287600424698683,False,False,0.3562187692256516,0.5273913670336909,4,1
exteroceptive,0.6916360467168552,False,True,0.4927818748850016,0.4716970829858324,4,1
exteroceptive,0.6224724420451697,False,True,0.4629628960460657,0.6365305853095883,4,1
exteroceptive,0.5602251978406527,True,True,0.5299037789298042,0.6017563623203276,4,1
exteroceptive,0.5042026780565875,False,False,0.37854331182387824,0.5554478055095833,4,1
exteroceptive,0.5546229458622463,False,True,0.26702256568619415,0.6245017328693108,4,1
interoceptive,0.5250616536698341,True,True,0.5010950524496669,0.5087100594167484,4,1
interoceptive,0.47255548830285077,False,False,0.5415119852866022,0.42066514034845864,4,1
interoceptive,0.5198110371331359,True,True,0.4303332967613875,0.3519219314837895,4,1
interoceptive,0.4678299334198223,False,True,0.49311748030886515,0.43013867476832945,4,1
interoceptive,0.4210469400778401,True,True,0.5229867672210602,0.3910766636235925,4,1
interoceptive,0.3789422460700561,False,False,0.6045962309849371,0.40849485882950953,4,1
interoceptive,0.41683647067706175,True,True,0.6091277082172386,0.3981902792069431,4,1
interoceptive,0.3751528236093556,True,False,0.3509166356203478,0.42658981304663357,4,1
interoceptive,0.4126681059702912,False,True,0.49001465590244975,0.28884666654472996,4,1
interoceptive,0.37140129537326205,False,False,0.2458517931460676,0.31656343527722364,4,1
interoceptive,0.4085414249105883,False,True,0.36510962910018785,0.35488939632152117,4,1
interoceptive,0.36768728241952947,True,False,0.5151854405194015,0.33904770021194985,4,1
interoceptive,0.40445601066148246,False,False,0.5730205389239924,0.513129805688623,4,1
interoceptive,0.44490161172763076,False,False,0.49836088304256226,0.4411899620225073,4,1
interoceptive,0.4893917729003939,False,True,0.4630074882949708,0.49514754547480005,4,1
interoceptive,0.4404525956103545,False,False,0.4276554696803577,0.5503822803933434,4,1
interoceptive,0.48449785517139,True,True,0.49610370006136106,0.5798201681221903,4,1
interoceptive,0.436048069654251,True,True,0.5125290380251218,0.45637711117146396,4,1
interoceptive,0.39244326268882596,True,False,0.37985359433189525,0.1869496859418076,4,1
interoceptive,0.4316875889577086,True,True,0.4114731450895872,0.4271977128063591,4,1
interoceptive,0.3885188300619377,False,False,0.38962836217799607,0.32666513808484465,4,1
interoceptive,0.4273707130681315,False,True,0.49499101575757876,0.3825339265171389,4,1
interoceptive,0.38463364176131837,False,True,0.4494065149417669,0.15659367064816904,4,1
interoceptive,0.34617027758518654,True,False,0.4868720921725828,0.3701031406416652,4,1
interoceptive,0.3807873053437052,True,True,0.33714281717935923,0.38261026322204317,4,1
interoceptive,0.3427085748093347,False,True,0.5105322987772187,0.3823197768084505,4,1
interoceptive,0.30843771732840125,True,False,0.5090197864797593,0.18085630984575934,4,1
interoceptive,0.3392814890612414,False,False,0.6330411897867326,0.18747781242133776,4,1
interoceptive,0.37320963796736556,True,True,0.3420868552403685,0.19867514753705745,4,1
interoceptive,0.335888674170629,True,False,0.4630432960620452,0.44995687213838026,4,1
interoceptive,0.3694775415876919,False,False,0.4052442901812018,0.4092152465897723,4,1
interoceptive,0.40642529574646113,True,False,0.6156568130391185,0.29263110819496274,4,1
interoceptive,0.4470678253211073,False,True,0.5448778119221409,0.5845210122607319,4,1
interoceptive,0.40236104278899654,False,False,0.26894841243710504,0.43299987620488706,4,1
interoceptive,0.4425971470678962,False,True,0.5296286886206623,0.6587136744403024,4,1
interoceptive,0.3983374323611066,True,True,0.44273242523676326,0.5540378104729833,4,1
interoceptive,0.3585036891249959,True,False,0.3452101886556802,0.4382081760303004,4,1
interoceptive,0.3943540580374955,False,False,0.47281889898232343,0.3475071188196248,4,1
interoceptive,0.4337894638412451,False,True,0.34205372009041124,0.2515704098524574,4,1
interoceptive,0.39041051745712063,True,True,0.44179165545615406,0.4271152617495873,4,1
interoceptive,0.3513694657114086,False,False,0.5592230430690704,0.43371082886055773,4,1
interoceptive,0.3865064122825495,True,False,0.4495595595740067,0.3806039642878558,4,1
interoceptive,0.4251570535108045,True,False,0.40441894833456593,0.3408752683534807,4,1
interoceptive,0.46767275886188503,True,True,0.4873734990300259,0.5959381532833624,4,1
interoceptive,0.4209054829756965,True,False,0.8001266801852257,0.2783814944980587,4,1
interoceptive,0.4629960312732662,False,True,0.35557639950278797,0.6845895442258952,4,1
interoceptive,0.4166964281459396,True,False,0.5344976279319006,0.38715151478250304,4,1
interoceptive,0.4583660709605336,True,True,0.4141958844145338,0.41715111798130755,4,1
interoceptive,0.41252946386448025,True,False,0.5781328414203029,0.2557000839640855,4,1
interoceptive,0.4537824102509283,True,False,0.5144831246820434,0.45478382259450667,4,1
control,0.7625989210148106,True,True,0.5917452940202315,0.6880034240156097,4,1
control,0.6863390289133295,True,False,0.4555354647466318,0.6496967713558259,4,1
control,0.7549729318046625,True,True,0.4301404286937261,0.7695009100768395,4,1
control,0.6794756386241962,False,True,0.2819545901195172,0.7939517291835196,4,1
control,0.6115280747617766,False,False,0.40181984394170905,0.5060591337575693,4,1
control,0.6726808822379543,False,True,0.637214517700723,0.7333760250313329,4,1
control,0.6054127940141589,True,True,0.34224831675447,0.5310860807603165,4,1
control,0.5448715146127431,False,True,0.44144572126622245,0.500925620635257,4,1
control,0.49038436315146877,True,False,0.6429317348434225,0.39649389462368245,4,1
control,0.5394227994666156,False,True,0.46542306846809123,0.4520215735946026,4,1
control,0.4854805195199541,False,True,0.4452459497528777,0.5363244255717583,4,1
control,0.43693246756795867,False,False,0.6055539995476329,0.471436198287735,4,1
control,0.4806257143247546,False,True,0.3891558455636765,0.603104842331566,4,1
control,0.43256314289227915,False,True,0.49445537845692916,0.6233420094277929,4,1
control,0.38930682860305127,False,True,0.5055127366928162,0.5273034171262961,4,1
control,0.35037614574274617,False,False,0.4484575710893709,0.39338364273966137,4,1
control,0.3854137603170208,True,False,0.5721093370674192,0.41159619083235316,4,1
control,0.4239551363487229,False,False,0.3866961690306535,0.659020175971696,4,1
control,0.4663506499835952,False,False,0.43823466296772284,0.47340099079468057,4,1
control,0.5129857149819548,False,False,0.48130865462293415,0.38631412491542444,4,1
control,0.5642842864801503,False,True,0.6671687186141548,0.7678755431305435,4,1
control,0.5078558578321353,True,False,0.5423230906717904,0.6874967488139685,4,1
control,0.5586414436153488,False,True,0.516318548667346,0.41505251449244923,4,1
control,0.502777299253814,True,True,0.5343828618216455,0.3953360705450406,4,1
control,0.4524995693284326,True,True,0.6023609036980401,0.5298455859600756,4,1
control,0.4072496123955894,True,True,0.3895244497367971,0.45623104696505756,4,1
control,0.36652465115603045,True,True,0.4994711124424145,0.5349822683614596,4,1
control,0.3298721860404274,True,True,0.6126598324965589,0.3275553096241348,4,1
control,0.29688496743638465,True,True,0.38595394723273646,0.3427055159673825,4,1
control,0.2671964706927462,False,True,0.47959039250351737,0.2961532138173991,4,1
control,0.2404768236234716,True,True,0.3516830756828762,0.20426061322302294,4,1
control,0.21642914126112442,False,True,0.4233328575097894,0.410564698026306,4,1
control,0.19478622713501198,False,True,0.33219645110752605,0.35151907129844584,4,1
control,0.17530760442151078,True,False,0.4197575762871939,0.09349931452521179,4,1
control,0.19283836486366188,True,True,0.45189302465424874,0.3269946974679021,4,1
control,0.17355452837729568,False,False,0.4875219542135805,0.2627042919588381,4,1
control,0.19090998121502525,False,True,0.3720967348694034,0.581543538375229,4,1
control,0.17181898309352273,False,False,0.6280951011810595,0.2670983287930281,4,1
control,0.18900088140287502,True,False,0.42456436199871983,0.48475048509659385,4,1
control,0.20790096954316253,False,False,0.3890568312522706,0.2627046933485674,4,1
control,0.2286910664974788,True,False,0.5429836729660537,0.27993300562439316,4,1
control,0.25156017314722673,False,False,0.3986700904979647,0.29943462349707123,4,1
control,0.27671619046194945,False,False,0.4565276667770277,0.46052804655677154,4,1
control,0.3043878095081444,False,False,0.49697388798795716,0.45879487410577285,4,1
control,0.3348265904589589,True,False,0.5995483071832615,0.29144481799998445,4,1
control,0.36830924950485483,False,False,0.47841916048891214,0.33002079711068305,4,1
control,0.40514017445534034,False,True,0.45852439016236846,0.48745743857679713,4,1
control,0.36462615700980633,False,False,0.6401770401140096,0.22011540508725938,4,1
control,0.40108877271078697,False,True,0.5030012420753217,0.4354699465854317,4,1
control,0.36097989543970826,False,False,0.5489638595280592,0.3003566445510893,4,1
exteroceptive,0.49916065127602166,False,True,0.5906264739333289,0.592835908289136,5,1
exteroceptive,0.4492445861484195,False,True,0.35144630883648864,0.6852119621934428,5,1
exteroceptive,0.40432012753357754,True,False,0.42822360491029376,0.5058220312538048,5,1
exteroceptive,0.4447521402869353,False,False,0.40244941278229085,0.5371003271894847,5,1
exteroceptive,0.4892273543156289,False,True,0.49926991273882987,0.36954321953856545,5,1
exteroceptive,0.440304618884066,False,False,0.4422505465859628,0.3830755243878817,5,1
exteroceptive,0.48433508077247267,False,False,0.4348799170899738,0.5061036888889769,5,1
exteroceptive,0.53276858884972,False,True,0.5985379123482377,0.48084320666626684,5,1
exteroceptive,0.47949172996474804,True,False,0.5596393985870608,0.667144359847937,5,1
exteroceptive,0.5274409029612229,True,True,0.4245053246870058,0.4816363432534311,5,1
exteroceptive,0.47469681266510066,True,True,0.5290732314935884,0.5736013161671042,5,1
exteroceptive,0.4272271313985906,False,False,0.40723889534767,0.5355730399231637,5,1
exteroceptive,0.4699498445384497,True,False,0.4714313938306611,0.41995404487008026,5,1
exteroceptive,0.5169448289922947,False,False,0.3661786519145981,0.3187687067739072,5,1
exteroceptive,0.5686393118915242,True,True,0.6018946914316574,0.49704114855312553,5,1
exteroceptive,0.5117753807023717,True,False,0.4121313063115181,0.552027780338565,5,1
exteroceptive,0.5629529187726089,False,True,0.36438005486341796,0.6803931872918627,5,1
exteroceptive,0.506657626895348,True,True,0.5653345688311637,0.5451488481878742,5,1
exteroceptive,0.4559918642058132,True,True,0.30477422284806865,0.4981506017585364,5,1
exteroceptive,0.4103926777852319,True,True,0.3821767210432742,0.4064571602465752,5,1
exteroceptive,0.36935341000670874,False,True,0.5867145923012238,0.5547513731648733,5,1
exteroceptive,0.3324180690060379,False,False,0.4462223954696306,0.23896300233780143,5,1
exteroceptive,0.3656598759066417,True,False,0.45611938536377344,0.27120261197608425,5,1
exteroceptive,0.4022258634973059,True,False,0.5281672900165659,0.41210506690670845,5,1
exteroceptive,0.4424484498470365,False,False,0.5492028017811393,0.22147921760250522,5,1
exteroceptive,0.48669329483174023,True,True,0.4456342413799624,0.505475986193527,5,1
exteroceptive,0.4380239653485662,True,True,0.507425082700642,0.44061734719126444,5,1
exteroceptive,0.39422156881370957,False,False,0.622389892352277,0.4507099425571099,5,1
exteroceptive,0.4336437256950806,False,False,0.4736422405937269,0.42226419891685646,5,1
exteroceptive,0.4770080982645887,True,False,0.5770495051501388,0.518388841593252,5,1
exteroceptive,0.5247089080910475,True,True,0.6128551380448393,0.5531921407045056,5,1
exteroceptive,0.4722380172819428,True,False,0.526941830873909,0.2910965695975257,5,1
exteroceptive,0.5194618190101371,False,True,0.653966419721624,0.4814891069791807,5,1
exteroceptive,0.4675156371091234,True,True,0.5100534411512933,0.26746084869004644,5,1
exteroceptive,0.4207640733982111,False,True,0.33949211720295047,0.5985628834497059,5,1
exteroceptive,0.37868766605839,False,False,0.6282676361881938,0.21590411058446995,5,1
exteroceptive,0.41655643266422904,False,False,0.5374934786345733,0.36296053163916264,5,1
exteroceptive,0.458212075930652,True,False,0.5389119120661153,0.5376955968727539,5,1
exteroceptive,0.5040332835237172,False,False,0.3854106275405155,0.3618596636877328,5,1
exteroceptive,0.5544366118760891,False,False,0.6639800718722134,0.5644058641198177,5,1
exteroceptive,0.609880273063698,False,True,0.5903811986609181,0.643256307154567,5,1
exteroceptive,0.5488922457573282,False,True,0.3747164741069471,0.6424923888913073,5,1
exteroceptive,0.4940030211815954,True,True,0.6374037799091304,0.6518088279930835,5,1
exteroceptive,0.44460271906343585,True,False,0.6022047215779796,0.44803042544006605,5,1
exteroceptive,0.48906299096977945,False,True,0.5342143929999716,0.6137377959683814,5,1
exteroceptive,0.44015669187280154,False,False,0.3741090194921982,0.3126281276439822,5,1
exteroceptive,0.4841723610600817,True,False,0.5405055290539802,0.22149261134465376,5,1
exteroceptive,0.5325895971660899,False,False,0.313274194757462,0.5712648891561722,5,1
exteroceptive,0.5858485568826989,False,True,0.5344801466950256,0.4386405273831504,5,1
exteroceptive,0.527263701194429,True,True,0.5866309155609486,0.46434616759859415,5,1
interoceptive,0.49916065127602116,False,True,0.6103630051351887,0.5659371236996138,5,1
interoceptive,0.44924458614841906,False,False,0.5327304695297291,0.48772344109038024,5,1
interoceptive,0.494169044763261,True,False,0.4648881600509559,0.48792091954680383,5,1
interoceptive,0.5435859492395871,True,False,0.5731091908804906,0.6059119023197862,5,1
interoceptive,0.5979445441635459,True,True,0.48717779140763245,0.45978015808220535,5,1
interoceptive,0.5381500897471914,True,False,0.6614014841685707,0.43726183945582825,5,1
interoceptive,0.5919650987219105,False,True,0.5042167749009869,0.6845242443082391,5,1
interoceptive,0.5327685888497194,True,False,0.47200479499943815,0.45359516699115526,5,1
interoceptive,0.5860454477346915,True,True,0.5190367382734539,0.6155682191087901,5,1
interoceptive,0.5274409029612224,True,False,0.6527252412822865,0.4346774056549901,5,1
interoceptive,0.5801849932573446,False,False,0.4989340065115811,0.3210834964088644,5,1
interoceptive,0.6382034925830792,False,True,0.40114580674716876,0.6769465980685664,5,1
interoceptive,0.5743831433247713,False,True,0.42738211506932333,0.6040387975886489,5,1
interoceptive,0.5169448289922941,False,True,0.6392260453285332,0.6179276850031802,5,1
interoceptive,0.4652503460930647,False,False,0.6223972242100636,0.36172522453304595,5,1
interoceptive,0.5117753807023712,False,False,0.5670065588233691,0.5477573440431244,5,1
interoceptive,0.5629529187726083,True,False,0.5681824608745154,0.6668321297685157,5,1
interoceptive,0.6192482106498692,True,False,0.39696355444885173,0.5941441214173591,5,1
interoceptive,0.6811730317148562,True,True,0.6213776094815366,0.7018211140164778,5,1
interoceptive,0.6130557285433706,False,False,0.2956746431161801,0.6027179667411083,5,1
interoceptive,0.6743613013977078,False,True,0.5192765183560336,0.6924682522083667,5,1
interoceptive,0.606925171257937,True,True,0.6201205837895527,0.6388979555276224,5,1
interoceptive,0.5462326541321433,False,True,0.48927960402025433,0.6874877436247817,5,1
interoceptive,0.49160938871892895,True,False,0.5269072457274728,0.44540013625970476,5,1
interoceptive,0.5407703275908219,True,False,0.5536505357209205,0.5138850702582537,5,1
interoceptive,0.5948473603499042,True,True,0.680021268530775,0.44241736545466726,5,1
interoceptive,0.5353626243149138,False,True,0.4679819070513767,0.7797587730545139,5,1
interoceptive,0.4818263618834224,True,True,0.3728288208859669,0.508433818568485,5,1
interoceptive,0.4336437256950802,True,False,0.5367384421957763,0.38992148435300383,5,1
interoceptive,0.47700809826458823,False,False,0.4923765717963249,0.3754685665478902,5,1
interoceptive,0.5247089080910471,False,False,0.6066423018500816,0.5500787711662948,5,1
interoceptive,0.5771797989001518,True,False,0.5649758009089804,0.5778903605501655,5,1
interoceptive,0.6348977787901671,False,False,0.42684100066736325,0.5595292113027562,5,1
interoceptive,0.6983875566691838,False,True,0.5507870923759438,0.7006499089270233,5,1
interoceptive,0.6285488010022655,False,True,0.49256630329628875,0.6700015387857232,5,1
interoceptive,0.565693920902039,True,False,0.5670999703428637,0.46580596570075256,5,1
interoceptive,0.6222633129922429,True,False,0.42916297822181715,0.5275383664581219,5,1
interoceptive,0.6844896442914673,False,False,0.49004562100799837,0.7109503253229492,5,1
interoceptive,0.7529386087206141,True,False,0.6536455191404016,0.592498774208734,5,1
interoceptive,0.8282324695926756,False,True,0.49442127077172116,0.7665927857911523,5,1
interoceptive,0.745409222633408,False,False,0.7774117939204847,0.73866408797132,5,1
interoceptive,0.8199501448967489,False,True,0.5441239658382914,0.9786297481038997,5,1
interoceptive,0.7379551304070741,True,False,0.41984528889112127,0.793315831052122,5,1
interoceptive,0.8117506434477815,False,True,0.516125970093595,0.9239806648291885,5,1
interoceptive,0.7305755791030033,True,False,0.43526212696786576,0.7707145861403613,5,1
interoceptive,0.8036331370133037,True,True,0.6710090631841027,0.6666289266986158,5,1
interoceptive,0.7232698233119734,True,False,0.4308236581918181,0.6734645634836768,5,1
interoceptive,0.7955968056431708,False,True,0.47922836743657565,0.8111539148527491,5,1
interoceptive,0.7160371250788538,True,False,0.6175730040927585,0.8429835309742023,5,1
interoceptive,0.7876408375867392,True,True,0.48837984108293175,0.7008038334328042,5,1
control,0.39707788498367913,True,False,0.431146486695725,0.5053519734046688,5,1
control,0.43678567348204705,True,False,0.5218566167842401,0.48856851173850335,5,1
control,0.4804642408302518,False,True,0.47371184516816417,0.4704697610354282,5,1
control,0.4324178167472266,False,True,0.3824990551712029,0.49447897448638006,5,1
control,0.389176035072504,True,False,0.42257866022659185,0.42040515701230835,5,1
control,0.4280936385797544,True,True,0.4896889808900447,0.5338304350158227,5,1
control,0.38528427472177895,True,True,0.6445292520942771,0.46155732411734074,5,1
control,0.34675584724960107,False,True,0.4079973836350987,0.39778150097461806,5,1
control,0.312080262524641,True,True,0.5539754690423265,0.6022882525892354,5,1
control,0.2808722362721769,True,False,0.5550006940123261,0.4585515396538471,5,1
control,0.3089594598993946,False,True,0.44886390969730233,0.27859136901583825,5,1
control,0.27806351390945516,False,False,0.5503851530741634,0.3788445983026608,5,1
control,0.3058698653004007,True,True,0.5429781845226294,0.48886423628178155,5,1
control,0.2752828787703607,True,False,0.47560271556706485,0.3397106836481292,5,1
control,0.30281116664739677,True,True,0.522557568641376,0.34048152389290004,5,1
control,0.2725300499826571,False,False,0.584273363638396,0.3182677904658447,5,1
control,0.29978305498092284,True,False,0.6019142247057017,0.4510731308298973,5,1
control,0.32976136047901516,False,True,0.577362875625749,0.34936893581307865,5,1
control,0.29678522443111366,True,False,0.522058092710411,0.3358234086458032,5,1
control,0.326463746874225,True,False,0.30185170317625815,0.44771635293775114,5,1
control,0.35911012156164757,False,False,0.5338460918234489,0.5776657129646181,5,1
control,0.39502113371781233,False,False,0.39578790761094323,0.44082279188214923,5,1
control,0.4345232470895936,True,True,0.6271231623219983,0.32089569362289017,5,1
control,0.39107092238063423,False,False,0.6491338664107402,0.40982886938510527,5,1
control,0.4301780146186977,False,False,0.4547302679431984,0.22429514098720138,5,1
control,0.4731958160805675,False,True,0.4215804231102504,0.2671481210609387,5,1
control,0.4258762344725108,False,True,0.4717213507736593,0.46473547130077136,5,1
control,0.3832886110252597,False,True,0.5747681658678208,0.4664490834728442,5,1
control,0.3449597499227337,True,False,0.3761599808734946,0.5329767575368126,5,1
control,0.3794557249150071,False,False,0.429650605590011,0.4843000604638641,5,1
control,0.4174012974065079,True,False,0.5661951355018108,0.4253004472379868,5,1
control,0.4591414271471587,True,True,0.5223208910671874,0.43401299039406177,5,1
control,0.41322728443244283,False,False,0.5669898788357908,0.2994389619238116,5,1
control,0.45455001287568714,False,True,0.4277720977328574,0.6215115476695683,5,1
control,0.40909501158811845,False,False,0.39621817110067237,0.3532933435144533,5,1
control,0.4500045127469303,True,False,0.49094986339990093,0.4256036896923069,5,1
control,0.4950049640216234,True,False,0.4939945004087153,0.47781065850789234,5,1
control,0.5445054604237858,False,True,0.5073065788610113,0.4329641908628568,5,1
control,0.4900549143814072,False,True,0.5659297592305581,0.5627504642563982,5,1
control,0.4410494229432665,True,True,0.577340724399247,0.35865526368012385,5,1
control,0.39694448064893983,False,False,0.4925145240100866,0.49799090503535587,5,1
control,0.43663892871383386,False,True,0.48318809540009344,0.5317318314967295,5,1
control,0.39297503584245047,True,False,0.44101309602508565,0.5144038794470998,5,1
control,0.4322725394266956,True,True,0.49836913653425385,0.46144996237415026,5,1
control,0.389045285484026,False,False,0.43477158607141003,0.4426904430684466,5,1
control,0.42794981403242865,True,False,0.5003111283616234,0.4297215286794955,5,1
control,0.47074479543567155,False,True,0.4174673503893413,0.41111073228894823,5,1
control,0.4236703158921044,True,True,0.5020167513722089,0.30235622343558155,5,1
control,0.38130328430289395,False,False,0.4091763530700943,0.41151428667880885,5,1
control,0.41943361273318336,True,True,0.43163113260681607,0.37045266164493246,5,1
interoceptive,0.7088767538280653,False,True,0.44736260213388346,0.7661445046655257,6,1
interoceptive,0.6379890784452588,False,False,0.5542171515316534,0.6438924820736194,6,1
interoceptive,0.7017879862897847,True,True,0.5705249420656864,0.6618386114758226,6,1
interoceptive,0.6316091876608062,True,True,0.5767234360720904,0.6865659491861169,6,1
interoceptive,0.5684482688947256,True,True,0.3992481413336886,0.633556226558926,6,1
interoceptive,0.511603442005253,True,True,0.48928316489734447,0.5278689749307761,6,1
interoceptive,0.4604430978047277,True,False,0.4469193825143498,0.3946606989168486,6,1
interoceptive,0.5064874075852005,True,True,0.30810011908384205,0.5675567827280867,6,1
interoceptive,0.45583866682668045,False,False,0.7331239106627183,0.3345919231932067,6,1
interoceptive,0.5014225335093485,True,True,0.30279960151416574,0.5872803940614939,6,1
interoceptive,0.45128028015841365,True,True,0.42906136003830986,0.42301542918634677,6,1
interoceptive,0.4061522521425723,False,True,0.6651033626265356,0.2897309712376572,6,1
interoceptive,0.3655370269283151,False,True,0.3636629471973737,0.21709287208616815,6,1
interoceptive,0.3289833242354836,True,True,0.49936167612125404,0.37218712224786243,6,1
interoceptive,0.29608499181193526,False,False,0.6372805516567541,0.3427671962892035,6,1
interoceptive,0.32569349099312883,False,False,0.36944369185243264,0.26555348257886213,6,1
interoceptive,0.35826284009244175,True,False,0.48414027659998277,0.354269601910862,6,1
interoceptive,0.39408912410168595,True,False,0.6204066163482131,0.32241784841821775,6,1
interoceptive,0.4334980365118546,True,True,0.44760636187999586,0.34123946462970206,6,1
interoceptive,0.39014823286066913,False,False,0.43272200468478295,0.2967725360371864,6,1
interoceptive,0.42916305614673605,False,False,0.40246711327425316,0.376838371855367,6,1
interoceptive,0.4720793617614097,True,True,0.6512950001852407,0.5729983303528956,6,1
interoceptive,0.42487142558526875,True,False,0.47292549472141,0.42432908773237316,6,1
interoceptive,0.46735856814379567,True,True,0.671865701565677,0.6296763579582649,6,1
interoceptive,0.4206227113294161,False,False,0.33266862234881756,0.5794273214169696,6,1
interoceptive,0.46268498246235773,True,False,0.48760350544136755,0.5029114395439952,6,1
interoceptive,0.5089534807085936,True,True,0.5181629234231093,0.5875144213996463,6,1
interoceptive,0.45805813263773426,False,True,0.37807320236643066,0.40181610398732576,6,1
interoceptive,0.41225231937396084,True,False,0.5632574112691668,0.29939838914016514,6,1
interoceptive,0.453477551311357,False,True,0.4768025489113622,0.6162972230791871,6,1
interoceptive,0.40812979618022127,False,False,0.5004643542106498,0.28693540545992213,6,1
interoceptive,0.44894277579824343,True,False,0.4038888936907553,0.6072411170646764,6,1
interoceptive,0.4938370533780678,True,False,0.553593956617954,0.309381862601986,6,1
interoceptive,0.5432207587158746,False,True,0.6012524807507513,0.5756586209408454,6,1
interoceptive,0.48889868284428717,False,True,0.5329420544631303,0.5979724339623079,6,1
interoceptive,0.44000881455985846,True,False,0.4178724713163658,0.2260236641092921,6,1
interoceptive,0.48400969601584437,True,True,0.4705111808582994,0.41807866310523917,6,1
interoceptive,0.43560872641425996,True,False,0.5265797407359325,0.46109299581232976,6,1
interoceptive,0.479169599055686,False,True,0.5648654782031458,0.5538625125476256,6,1
interoceptive,0.4312526391501174,False,True,0.33348292402826657,0.5432452011535829,6,1
interoceptive,0.38812737523510565,True,False,0.5115705745189882,0.3727400204598854,6,1
interoceptive,0.42694011275861626,False,True,0.44729272468440573,0.46024036171155724,6,1
interoceptive,0.3842461014827546,False,True,0.3609704750503815,0.3425390151296944,6,1
interoceptive,0.34582149133447915,False,False,0.38040241699288396,0.5322572910895166,6,1
interoceptive,0.3804036404679271,True,True,0.523551781189499,0.249918507567142,6,1
interoceptive,0.3423632764211344,True,False,0.619877412973806,0.36306401626813367,6,1
interoceptive,0.3765996040632479,True,False,0.5355340437551648,0.18410413719523402,6,1
interoceptive,0.4142595644695727,False,False,0.717939855910491,0.321726978353747,6,1
interoceptive,0.45568552091653,False,False,0.4491162349230405,0.4025955660464566,6,1
interoceptive,0.501254073008183,False,True,0.5580506527163378,0.5934992318164961,6,1
exteroceptive,0.47453733107498614,True,True,0.37858803395973173,0.6175165942117651,6,1
exteroceptive,0.4270835979674875,True,False,0.43055481058336165,0.26938539745595386,6,1
exteroceptive,0.4697919577642363,False,True,0.5188889651217524,0.61193307590365,6,1
exteroceptive,0.4228127619878127,True,True,0.4646335090208262,0.43961938340714024,6,1
exteroceptive,0.38053148578903145,False,False,0.5091178712553535,0.3382442361817011,6,1
exteroceptive,0.41858463436793464,False,True,0.45583967345316495,0.7210768006592432,6,1
exteroceptive,0.3767261709311412,True,True,0.3357022975528523,0.48280771172885883,6,1
exteroceptive,0.3390535538380271,True,True,0.4530139017993583,0.4822278893823845,6,1
exteroceptive,0.3051481984542244,False,False,0.501600789398198,0.38181899236597894,6,1
exteroceptive,0.3356630182996469,True,True,0.4550439172490572,0.5236099734025308,6,1
exteroceptive,0.3020967164696822,True,False,0.5501621005396423,0.08916642898001598,6,1
exteroceptive,0.3323063881166505,True,False,0.39145862178768054,0.3955872440901066,6,1
exteroceptive,0.3655370269283156,True,False,0.4281488144610003,0.39461950676760965,6,1
exteroceptive,0.40209072962114717,False,False,0.4517759312455859,0.4257783245030664,6,1
exteroceptive,0.4422998025832619,True,True,0.4855042505734315,0.43588322916462746,6,1
exteroceptive,0.3980698223249357,True,False,0.39227971811662743,0.45717275638624705,6,1
exteroceptive,0.43787680455742933,True,False,0.5590126984256933,0.5099267511757182,6,1
exteroceptive,0.4816644850131723,False,False,0.7154206889084098,0.26569162962075343,6,1
exteroceptive,0.5298309335144896,False,True,0.42999398978604825,0.523896260486804,6,1
exteroceptive,0.47684784016304066,False,False,0.5039746656592361,0.521637499492119,6,1
exteroceptive,0.5245326241793448,True,False,0.6620940966006498,0.477661698043641,6,1
exteroceptive,0.5769858865972793,False,False,0.4412506287295267,0.4006434470969709,6,1
exteroceptive,0.6346844752570073,True,False,0.5949172458723744,0.6812409182109898,6,1
exteroceptive,0.6981529227827081,True,True,0.5983798707642723,0.8018188481357068,6,1
exteroceptive,0.6283376305044374,False,True,0.498795085022333,0.6370289987835884,6,1
exteroceptive,0.5655038674539936,True,False,0.4855365601400402,0.5544904492599757,6,1
exteroceptive,0.622054254199393,True,False,0.7474756257442078,0.6217143415059061,6,1
exteroceptive,0.6842596796193323,True,False,0.5228216875119741,0.43638224594857955,6,1
exteroceptive,0.7526856475812657,False,False,0.5704350252879604,0.6660110358948721,6,1
exteroceptive,0.8279542123393923,True,False,0.4723824462916598,0.75737294441434,6,1
exteroceptive,0.9107496335733316,True,False,0.5230949341899612,0.812111221831004,6,1
exteroceptive,1.0,False,True,0.4674525278195499,0.8812872713748816,6,1
exteroceptive,0.9,True,False,0.4872847090006225,0.5129940364515331,6,1
exteroceptive,0.9900000000000001,True,False,0.4757338473956018,0.7582323031311484,6,1
exteroceptive,1.0,True,True,0.5431440235520608,0.9540070497852604,6,1
exteroceptive,0.9,False,True,0.5737593552399979,0.7000385421709923,6,1
exteroceptive,0.81,False,True,0.4861039330712789,0.6149725056572145,6,1
exteroceptive,0.7290000000000001,True,False,0.4680965379509907,0.6152591984968582,6,1
exteroceptive,0.8019000000000002,True,True,0.6771498769842823,0.6985992158137397,6,1
exteroceptive,0.7217100000000002,False,True,0.4744480542389888,0.7559858310841526,6,1
exteroceptive,0.6495390000000002,False,True,0.6699638430521021,0.6596851425588828,6,1
exteroceptive,0.5845851000000002,True,True,0.4440752121036289,0.566019677555872,6,1
exteroceptive,0.5261265900000002,True,True,0.4314642537666136,0.5259560312997857,6,1
exteroceptive,0.47351393100000017,False,False,0.3744783285915956,0.5184529505886617,6,1
exteroceptive,0.5208653241000002,True,True,0.46115517224012686,0.705332776857152,6,1
exteroceptive,0.4687787916900002,False,True,0.5729375890954751,0.42334487678899363,6,1
exteroceptive,0.4219009125210002,True,False,0.49954168206139693,0.33828604783284744,6,1
exteroceptive,0.46409100377310025,True,True,0.3764328539926703,0.6139015753469813,6,1
exteroceptive,0.41768190339579025,True,True,0.3890251297499177,0.5606393454242559,6,1
exteroceptive,0.37591371305621124,True,False,0.46397653413411233,0.4556427006741167,6,1
control,0.37749025145986503,True,True,0.5348359122525391,0.5178065267024732,6,1
control,0.33974122631387854,False,True,0.3636772061727128,0.631687637568816,6,1
control,0.3057671036824907,True,False,0.45926131034601947,0.3961215465721506,6,1
control,0.3363438140507398,False,False,0.6892328562832323,0.25187287013522724,6,1
control,0.36997819545581384,False,True,0.5743134868498665,0.3778527434060721,6,1
control,0.33298037591023244,False,False,0.4542417192155113,0.44308992910719625,6,1
control,0.36627841350125573,True,False,0.6443080758622599,0.3008437202163692,6,1
control,0.4029062548513813,False,True,0.44904300223001703,0.38976421016168455,6,1
control,0.3626156293662432,True,False,0.6322144969015338,0.4241152578387175,6,1
control,0.39887719230286756,False,True,0.4470996456929252,0.5033562867237179,6,1
control,0.35898947307258083,True,True,0.5991228958694186,0.48627656595017216,6,1
control,0.32309052576532277,True,False,0.5737152346167603,0.35644979475873056,6,1
control,0.3553995783418551,False,True,0.5386531501611145,0.2992442837984019,6,1
control,0.3198596205076696,False,True,0.37896027419156747,0.40700631179586105,6,1
control,0.28787365845690266,True,False,0.5587394580284699,0.2649286513227843,6,1
control,0.31666102430259296,True,True,0.5604785617950392,0.22827226389802416,6,1
control,0.28499492187233366,True,False,0.5283775356887414,0.5554769829499058,6,1
control,0.3134944140595671,True,True,0.5378805533163747,0.3651462372978626,6,1
control,0.2821449726536104,True,False,0.5561359777010542,0.4381999475607379,6,1
control,0.31035946991897145,True,True,0.4999058339486951,0.4666754683592709,6,1
control,0.2793235229270743,True,True,0.2600094389527418,0.5740152767707155,6,1
control,0.2513911706343669,False,False,0.28991690386100355,0.3490403299220448,6,1
control,0.2765302876978036,False,False,0.4589410504003272,0.24259842326524492,6,1
control,0.30418331646758395,True,False,0.40595493963533386,0.5187910785682177,6,1
control,0.3346016481143424,False,False,0.4964067633779841,0.2154360056178257,6,1
control,0.36806181292577667,True,False,0.6248352972592822,0.44788991727112093,6,1
control,0.40486799421835434,False,True,0.3967462799615263,0.41632252545089743,6,1
control,0.3643811947965189,True,False,0.40270035838274487,0.17929085475937515,6,1
control,0.40081931427617085,False,False,0.5777243267755833,0.35813971264435185,6,1
control,0.44090124570378797,True,False,0.2728144397647583,0.33991397716447436,6,1
control,0.48499137027416683,True,True,0.5321192329877309,0.43458742930800587,6,1
control,0.4364922332467502,True,False,0.5301761892105877,0.49421129092901805,6,1
control,0.48014145657142526,True,False,0.5206849205192182,0.5189241418460002,6,1
control,0.5281556022285678,False,True,0.4592820873331402,0.5506670357539735,6,1
control,0.47534004200571106,True,False,0.49116164353214414,0.3844916309674697,6,1
control,0.5228740462062822,False,True,0.5626604351719107,0.5367668762542368,6,1
control,0.470586641585654,True,True,0.6966286904639714,0.6002911563955434,6,1
control,0.4235279774270886,True,True,0.2602677626149875,0.5793995333453544,6,1
control,0.38117517968437975,False,False,0.5933597692334586,0.3859455231267646,6,1
control,0.41929269765281774,True,True,0.48338828618440893,0.5753015615126909,6,1
control,0.37736342788753596,True,True,0.5860232888559295,0.46968684944510264,6,1
control,0.33962708509878237,False,False,0.512776897729445,0.41717184522012213,6,1
control,0.3735897936086606,False,True,0.44554270972646465,0.26843753479773214,6,1
control,0.33623081424779455,True,False,0.4576670315016691,0.50148660138728,6,1
control,0.36985389567257404,True,False,0.6199895529525314,0.23607075501917862,6,1
control,0.4068392852398315,True,True,0.6257279777809721,0.39545264771463334,6,1
control,0.36615535671584837,False,True,0.587477364138381,0.29896931966483664,6,1
control,0.32953982104426355,True,False,0.5826438965542409,0.37082201759184547,6,1
control,0.36249380314868995,True,False,0.27547758499207753,0.33193345580831046,6,1
control,0.39874318346355897,True,False,0.6041252243110661,0.5015961286526238,6,1
exteroceptive,0.4135050843618324,False,True,0.7010158361249965,0.4987135520625374,7,1
exteroceptive,0.3721545759256492,False,False,0.6157185782037973,0.39174755226467195,7,1
exteroceptive,0.40937003351821416,True,False,0.5108739476336499,0.3593774222388369,7,1
exteroceptive,0.4503070368700356,False,False,0.802267779993329,0.33931505218067604,7,1
exteroceptive,0.4953377405570392,False,False,0.6106719447073791,0.49753044863427154,7,1
exteroceptive,0.5448715146127432,True,False,0.5005610292730222,0.37671983794421526,7,1
exteroceptive,0.5993586660740176,True,False,0.4956515921524793,0.49888446304734235,7,1
exteroceptive,0.6592945326814194,False,True,0.3588924108991119,0.7048638370121088,7,1
exteroceptive,0.5933650794132774,False,True,0.5236293361323757,0.4196149980566437,7,1
exteroceptive,0.5340285714719497,False,False,0.45856272240792717,0.5751685636894159,7,1
exteroceptive,0.5874314286191448,False,False,0.6122263470619435,0.6363148007447734,7,1
exteroceptive,0.6461745714810593,False,True,0.397627381962465,0.7200426559743904,7,1
exteroceptive,0.5815571143329533,True,True,0.37974620985674906,0.6569905459006218,7,1
exteroceptive,0.523401402899658,True,True,0.5054633010827442,0.6605302906943596,7,1
exteroceptive,0.47106126260969217,False,False,0.7086100037923967,0.4613373136085932,7,1
exteroceptive,0.5181673888706614,True,True,0.6110855190090272,0.6809208438742784,7,1
exteroceptive,0.46635064998359527,False,True,0.6964359840029215,0.5283558135769895,7,1
exteroceptive,0.41971558498523576,True,True,0.6108985812508452,0.3762294706201595,7,1
exteroceptive,0.3777440264867122,True,False,0.4705623944905609,0.4217033503662772,7,1
exteroceptive,0.41551842913538345,True,False,0.5982235612670581,0.3956431033292695,7,1
exteroceptive,0.4570702720489218,True,False,0.4049481566641339,0.6091519267671006,7,1
exteroceptive,0.502777299253814,True,False,0.5065800516241702,0.5507732508416302,7,1
exteroceptive,0.5530550291791955,True,False,0.28619511113697105,0.5624975912721571,7,1
exteroceptive,0.608360532097115,False,True,0.556525744069498,0.541565997906241,7,1
exteroceptive,0.5475244788874035,False,True,0.42100112511247073,0.4534050653454306,7,1
exteroceptive,0.4927720309986632,True,True,0.5989208010150004,0.6651969282670191,7,1
exteroceptive,0.44349482789879685,True,False,0.29361872740052763,0.40071199532157764,7,1
exteroceptive,0.48784431068867656,False,False,0.6478572173200401,0.5577948838032787,7,1
exteroceptive,0.5366287417575443,True,True,0.5102890702295141,0.4411979717149788,7,1
exteroceptive,0.48296586758178983,False,False,0.5492299844708233,0.6708456469898978,7,1
exteroceptive,0.5312624543399689,False,True,0.4347981327959781,0.5643629590455099,7,1
exteroceptive,0.478136208905972,False,False,0.3013524671124704,0.38988650619447224,7,1
exteroceptive,0.5259498297965692,False,True,0.48451843320336463,0.7032042772263295,7,1
exteroceptive,0.4733548468169123,True,False,0.5643917352455704,0.49960210986878006,7,1
exteroceptive,0.5206903314986036,False,False,0.540458127864327,0.5338323516152317,7,1
exteroceptive,0.572759364648464,False,False,0.5152423031652588,0.5590971088553937,7,1
exteroceptive,0.6300353011133104,True,True,0.6060421806704469,0.48030226459908765,7,1
exteroceptive,0.5670317710019794,False,False,0.41190223568707646,0.4243281853066483,7,1
exteroceptive,0.6237349481021774,True,True,0.47291722925904345,0.4500853952940891,7,1
exteroceptive,0.5613614532919597,True,False,0.6362003215245514,0.43041799760173105,7,1
exteroceptive,0.6174975986211557,False,True,0.4397166939363938,0.49133879702466776,7,1
exteroceptive,0.5557478387590402,False,False,0.3866415445748376,0.5274866133549085,7,1
exteroceptive,0.6113226226349443,True,True,0.26931468265733227,0.617174719626496,7,1
exteroceptive,0.5501903603714499,True,False,0.4507608190676994,0.41176277832085717,7,1
exteroceptive,0.605209396408595,False,True,0.5845007722976737,0.5573659949636749,7,1
exteroceptive,0.5446884567677355,False,False,0.43570896161998274,0.4854131343741578,7,1
exteroceptive,0.599157302444509,False,False,0.5723201240563982,0.7071371810332752,7,1
exteroceptive,0.65907303268896,False,True,0.4548248605438595,0.6061581173336209,7,1
exteroceptive,0.5931657294200641,True,False,0.5507928789080532,0.48709110764524566,7,1
exteroceptive,0.6524823023620705,False,False,0.45697956873117873,0.5370567746287813,7,1
control,0.4386175018099149,True,False,0.4040365081635083,0.4644034046220306,7,1
control,0.4824792519909064,True,False,0.44981153930080486,0.5766711054018936,7,1
control,0.5307271771899971,True,False,0.5257026296841076,0.7761433888905873,7,1
control,0.5837998949089969,False,False,0.4340414504901802,0.6691504027902611,7,1
control,0.6421798843998966,True,True,0.5548685949344698,0.5766955764402455,7,1
control,0.577961895959907,True,True,0.4562361998339153,0.5707303510724258,7,1
control,0.5201657063639163,False,True,0.49424507295640147,0.5197903882487787,7,1
control,0.4681491357275247,True,False,0.5572807658376664,0.5075211834461125,7,1
control,0.5149640493002772,True,True,0.5042129243487478,0.3830564394638167,7,1
control,0.46346764437024945,True,True,0.3445816387822743,0.45969665382639135,7,1
control,0.4171208799332245,False,True,0.4909395671083028,0.44055799721048133,7,1
control,0.37540879193990206,False,False,0.41607528253586823,0.3509963754343186,7,1
control,0.4129496711338923,False,True,0.30808340038666476,0.4783531327860112,7,1
control,0.3716547040205031,False,False,0.7153906361112072,0.29983331564740245,7,1
control,0.4088201744225534,True,False,0.555710862459331,0.37305836776232465,7,1
control,0.4497021918648088,True,False,0.5965088014974563,0.24938951411592883,7,1
control,0.49467241105128973,True,False,0.4927175948625153,0.5525033721765231,7,1
control,0.5441396521564188,True,True,0.5058994782774193,0.5413888056615989,7,1
control,0.48972568694077695,True,True,0.5104987274499875,0.6241565880843787,7,1
control,0.44075311824669927,False,True,0.44968329579052435,0.3460899296936334,7,1
control,0.3966778064220294,False,False,0.5381908796615964,0.40245555899389496,7,1
control,0.4363455870642324,True,True,0.6004448198790042,0.4605538613138044,7,1
control,0.39271102835780913,False,True,0.6484390889243599,0.48544775429073617,7,1
control,0.35343992552202824,False,False,0.4162874297112965,0.43393498063569225,7,1
control,0.38878391807423107,False,True,0.4663724042550208,0.3450217173016572,7,1
control,0.349905526266808,True,True,0.6571102774097664,0.5343379072395742,7,1
control,0.3149149736401272,True,False,0.44790710379736576,0.47720333302061724,7,1
control,0.34640647100413996,True,False,0.6211100839159968,0.3699066035508368,7,1
control,0.381047118104554,False,True,0.38237507948539534,0.6229730020572439,7,1
control,0.3429424062940986,True,False,0.5781761639459415,0.28804884541094894,7,1
control,0.3772366469235085,True,True,0.6566987545299512,0.5620891583360659,7,1
control,0.33951298223115767,True,False,0.5812012400815265,0.4501774820552592,7,1
control,0.3734642804542735,True,False,0.611866131742716,0.5748588063579899,7,1
control,0.41081070849970086,True,True,0.45918458624146635,0.411552460838233,7,1
control,0.36972963764973077,True,False,0.4470239146620261,0.4230016735790093,7,1
control,0.4067026014147039,True,True,0.588164805250284,0.6070360645541699,7,1
control,0.3660323412732335,False,False,0.5268918079358549,0.631730779450892,7,1
control,0.40263557540055683,False,True,0.4536482856178191,0.4910935766475683,7,1
control,0.36237201786050116,False,False,0.5576004403710472,0.39877222259917045,7,1
control,0.3986092196465513,True,False,0.438166908187169,0.4417581644220779,7,1
control,0.4384701416112065,False,False,0.5833437998622645,0.4501794611054582,7,1
control,0.4823171557723272,True,True,0.44352568619818866,0.30516783805664627,7,1
control,0.4340854401950945,False,False,0.537340333745211,0.3882360881935534,7,1
control,0.477493984214604,True,False,0.5635934203864038,0.39676533320792695,7,1
control,0.5252433826360644,True,True,0.4607078375830064,0.65113288334317,7,1
control,0.472719044372458,True,False,0.4287165955101597,0.5146024769426534,7,1
control,0.5199909488097039,True,False,0.6201303509124005,0.4792453554211876,7,1
control,0.5719900436906743,False,False,0.46896167480082607,0.7293087047000233,7,1
control,0.6291890480597417,False,True,0.2476214234012497,0.7264139117248315,7,1
control,0.5662701432537676,False,True,0.6581588430289066,0.492030516252303,7,1
interoceptive,0.45112866570736476,True,True,0.5324502502557217,0.5277130071034573,7,1
interoceptive,0.4060157991366283,False,False,0.4213977368056561,0.36336117285488717,7,1
interoceptive,0.44661737905029114,True,False,0.6100276365006572,0.34861851545695366,7,1
interoceptive,0.4912791169553203,True,True,0.6805674534813866,0.5953658336991441,7,1
interoceptive,0.44215120525978824,False,False,0.665409456904821,0.6046563875724885,7,1
interoceptive,0.4863663257857671,False,False,0.4839927896551396,0.43366755241154353,7,1
interoceptive,0.5350029583643439,False,False,0.4243219340030975,0.5358556166358368,7,1
interoceptive,0.5885032542007783,True,True,0.6160017236406142,0.579039943071164,7,1
interoceptive,0.5296529287807005,True,True,0.531068315111717,0.5024306434182877,7,1
interoceptive,0.4766876359026304,True,False,0.4280420808923106,0.36205753798756335,7,1
interoceptive,0.5243563994928935,True,False,0.3768285185272299,0.6344717218141376,7,1
interoceptive,0.5767920394421828,False,False,0.3923842711756915,0.40705450584047964,7,1
interoceptive,0.6344712433864012,False,True,0.38487402226055684,0.6502210548973941,7,1
interoceptive,0.5710241190477611,True,False,0.4605031341911042,0.5631227093501762,7,1
interoceptive,0.6281265309525372,True,True,0.4192976189343071,0.5368511625874928,7,1
interoceptive,0.5653138778572835,False,False,0.6356522009257318,0.476674340604921,7,1
interoceptive,0.6218452656430119,True,True,0.5222669106878762,0.7025240174549922,7,1
interoceptive,0.5596607390787107,False,True,0.5767160728249313,0.5613076501155929,7,1
interoceptive,0.5036946651708397,True,False,0.6134194447275866,0.47495670287269626,7,1
interoceptive,0.5540641316879238,True,True,0.3574829128729923,0.5550231147658045,7,1
interoceptive,0.49865771851913143,False,True,0.619173236607442,0.6276216352724311,7,1
interoceptive,0.4487919466672183,True,True,0.5875876998667581,0.39007512923050336,7,1
interoceptive,0.4039127520004965,True,True,0.543202402571891,0.5476335449686903,7,1
interoceptive,0.36352147680044683,True,False,0.45966858318330883,0.38337646665787173,7,1
interoceptive,0.3998736244804915,True,False,0.609053779388696,0.3946701101485664,7,1
interoceptive,0.4398609869285407,True,True,0.5248888393786217,0.48935668624456263,7,1
interoceptive,0.3958748882356866,False,False,0.589658060904092,0.3341745524192893,7,1
interoceptive,0.43546237705925533,False,False,0.6427058828935253,0.31111299971781625,7,1
interoceptive,0.4790086147651809,True,True,0.3435042856243789,0.6311659232773839,7,1
interoceptive,0.43110775328866285,True,True,0.651925913551044,0.4487993386707389,7,1
interoceptive,0.3879969779597966,True,False,0.6344966595292687,0.26024009957054395,7,1
interoceptive,0.4267966757557763,False,True,0.5692798456786249,0.4319534466709433,7,1
interoceptive,0.38411700818019867,False,True,0.36365280084834706,0.3646236610507225,7,1
interoceptive,0.3457053073621788,False,False,0.7479844460604775,0.18118004247056907,7,1
interoceptive,0.3802758380983967,True,False,0.38505309092324136,0.3437738393831602,7,1
interoceptive,0.41830342190823644,False,True,0.46020581793409426,0.300175020839481,7,1
interoceptive,0.3764730797174128,False,True,0.3012960519052438,0.5175191813452658,7,1
interoceptive,0.3388257717456715,True,False,0.5446342626273986,0.27895103637434077,7,1
interoceptive,0.3727083489202387,True,False,0.5548975939813615,0.34036629288885084,7,1
interoceptive,0.40997918381226256,True,False,0.6155688042665433,0.5498929908014495,7,1
interoceptive,0.45097710219348885,True,False,0.3836701373243175,0.460996517007813,7,1
interoceptive,0.4960748124128378,False,True,0.58646089232011,0.3840725550874685,7,1
interoceptive,0.446467331171554,False,False,0.5547301531842687,0.4712087874035681,7,1
interoceptive,0.49111406428870946,False,True,0.5047476496918839,0.5109882943688873,7,1
interoceptive,0.4420026578598385,False,False,0.3223689110114299,0.32278174822168976,7,1
interoceptive,0.4862029236458224,False,True,0.4681024966804242,0.518367378054895,7,1
interoceptive,0.4375826312812402,True,False,0.31566832680890233,0.502323145536224,7,1
interoceptive,0.4813408944093643,False,False,0.4041394514170722,0.49397398381425617,7,1
interoceptive,0.5294749838503008,False,True,0.566547623208913,0.4902775905879648,7,1
interoceptive,0.47652748546527074,False,True,0.5078973574357064,0.4788598753514252,7,1
exteroceptive,0.7177305325982776,True,True,0.56173926446103,0.5191850628839899,8,1
exteroceptive,0.6459574793384498,True,True,0.49184073733671413,0.6805598534081313,8,1
exteroceptive,0.5813617314046049,True,False,0.6637778820564586,0.30778196856096646,8,1
exteroceptive,0.6394979045450654,False,False,0.39832227867868136,0.5787398252401289,8,1
exteroceptive,0.7034476949995719,True,False,0.5768644019046745,0.7020299439248181,8,1
exteroceptive,0.7737924644995292,True,False,0.3209447960425513,0.6809839323264328,8,1
exteroceptive,0.8511717109494822,True,False,0.4381372638389809,0.787042379337633,8,1
exteroceptive,0.9362888820444305,False,True,0.3952642623731076,0.7737853488860638,8,1
exteroceptive,0.8426599938399875,False,True,0.4860210962793675,0.6857215960517884,8,1
exteroceptive,0.7583939944559888,False,False,0.5651773375373956,0.639590532328105,8,1
exteroceptive,0.8342333939015877,False,True,0.5483579913672141,0.8348318300207317,8,1
exteroceptive,0.7508100545114289,False,True,0.6662457907655868,0.6844892320852969,8,1
exteroceptive,0.6757290490602861,False,False,0.5564875458690469,0.6418226812235646,8,1
exteroceptive,0.7433019539663147,False,True,0.4553023195712471,0.7586653361606652,8,1
exteroceptive,0.6689717585696833,False,False,0.5904018866823284,0.5318700944350085,8,1
exteroceptive,0.7358689344266517,True,True,0.659457891010363,0.743915611322698,8,1
exteroceptive,0.6622820409839866,True,True,0.42375047452517056,0.5949511356469105,8,1
exteroceptive,0.5960538368855879,False,True,0.44282510199459735,0.49183082844190507,8,1
exteroceptive,0.5364484531970292,False,False,0.5409832291324405,0.5419254553099451,8,1
exteroceptive,0.5900932985167321,False,True,0.5916996205162974,0.5146320236095137,8,1
exteroceptive,0.5310839686650589,False,False,0.5073911033703004,0.6490195627930488,8,1
exteroceptive,0.5841923655315648,True,True,0.6028997829350036,0.7508393874123663,8,1
exteroceptive,0.5257731289784083,False,False,0.510046635761391,0.3824058832035128,8,1
exteroceptive,0.5783504418762492,False,False,0.38765637980202367,0.6021996445822032,8,1
exteroceptive,0.6361854860638742,True,True,0.627655748245518,0.45615739038385883,8,1
exteroceptive,0.5725669374574868,False,True,0.5125420202124705,0.5389606251735952,8,1
exteroceptive,0.5153102437117381,True,False,0.3999299461946412,0.48918296452752996,8,1
exteroceptive,0.5668412680829119,False,True,0.5367000732488535,0.48352010649244975,8,1
exteroceptive,0.5101571412746208,False,True,0.36885521631703777,0.550005424646094,8,1
exteroceptive,0.45914142714715867,False,False,0.38201875402113494,0.32379527205225367,8,1
exteroceptive,0.5050555698618746,True,True,0.6578706151729565,0.5094361380033596,8,1
exteroceptive,0.45455001287568714,False,False,0.5697738878310908,0.4325789352922815,8,1
exteroceptive,0.5000050141632559,False,True,0.5892281434481946,0.4698984658758197,8,1
exteroceptive,0.4500045127469304,True,True,0.5709623485077475,0.48115334479814925,8,1
exteroceptive,0.40500406147223733,False,False,0.4539687742481211,0.37658629350921907,8,1
exteroceptive,0.4455044676194611,False,False,0.5350525633184062,0.43313427490504214,8,1
exteroceptive,0.49005491438140725,False,False,0.5133314146043634,0.417468550226228,8,1
exteroceptive,0.5390604058195481,False,False,0.45948841855257583,0.4211280861118297,8,1
exteroceptive,0.5929664464015029,True,True,0.5475388686420145,0.7044982589707789,8,1
exteroceptive,0.5336698017613526,False,True,0.48871066304059946,0.7446317412958325,8,1
exteroceptive,0.48030282158521737,False,False,0.4930949874642072,0.607881254225407,8,1
exteroceptive,0.5283331037437391,False,False,0.642962517485156,0.49976229866205596,8,1
exteroceptive,0.5811664141181131,False,True,0.6153430596132446,0.6021702754951217,8,1
exteroceptive,0.5230497727063018,False,True,0.4648526298341035,0.6574233634201541,8,1
exteroceptive,0.47074479543567166,False,True,0.5903235591431423,0.6026475013880693,8,1
exteroceptive,0.4236703158921045,True,False,0.5352176444281923,0.44981144027364095,8,1
exteroceptive,0.46603734748131503,True,False,0.3791332009164067,0.5230421439525962,8,1
exteroceptive,0.5126410822294466,False,False,0.42114881037610885,0.4966590038406887,8,1
exteroceptive,0.5639051904523913,False,False,0.43120482756732537,0.5695825283754197,8,1
exteroceptive,0.6202957094976305,True,False,0.4063874039875226,0.4643460666899768,8,1
interoceptive,0.42887473691874367,True,False,0.5422722181500326,0.5993084134729172,8,1
interoceptive,0.47176221061061807,False,True,0.5627276271787851,0.6510773895299229,8,1
interoceptive,0.4245859895495563,True,False,0.4702645379739214,0.5222690115057653,8,1
interoceptive,0.46704458850451197,False,False,0.5834984649045751,0.43832225612336745,8,1
interoceptive,0.5137490473549632,False,False,0.590500367415279,0.54262931172329,8,1
interoceptive,0.5651239520904595,True,True,0.41190168746565314,0.5402783044214982,8,1
interoceptive,0.5086115568814136,True,False,0.4877577613971644,0.5073717546598928,8,1
interoceptive,0.559472712569555,False,True,0.4170763265915869,0.6328822862773639,8,1
interoceptive,0.5035254413125995,True,False,0.4430107975414466,0.49631035822954817,8,1
interoceptive,0.5538779854438595,False,True,0.47584843251291553,0.5317992323122525,8,1
interoceptive,0.49849018689947355,False,True,0.5885942061306887,0.7562023470483641,8,1
interoceptive,0.4486411682095262,True,True,0.6661560186573103,0.34069145695152736,8,1
interoceptive,0.4037770513885736,False,True,0.5477664936046813,0.3343342753264177,8,1
interoceptive,0.36339934624971626,True,False,0.544611209336559,0.3234039771078092,8,1
interoceptive,0.3997392808746879,False,True,0.5892182364314325,0.38636111111438215,8,1
interoceptive,0.3597653527872191,False,False,0.3522094176115392,0.3089189291029018,8,1
interoceptive,0.39574188806594107,True,False,0.5445573946421318,0.5261210456338337,8,1
interoceptive,0.4353160768725352,False,False,0.45448124103693793,0.3496759699317803,8,1
interoceptive,0.47884768455978877,False,False,0.5098719997071472,0.44599606040499606,8,1
interoceptive,0.5267324530157677,False,True,0.4744005796523816,0.4858519763691082,8,1
interoceptive,0.4740592077141909,False,False,0.6204708247433435,0.36144476836599493,8,1
interoceptive,0.52146512848561,True,False,0.3198774889375158,0.5234687783231364,8,1
interoceptive,0.5736116413341711,False,False,0.7190487467341686,0.5524059550442232,8,1
interoceptive,0.6309728054675883,False,False,0.6473288187998169,0.5277019281157982,8,1
interoceptive,0.6940700860143472,True,True,0.4234096812291339,0.844780828867754,8,1
interoceptive,0.6246630774129125,True,False,0.6362594745724997,0.4829777007451777,8,1
interoceptive,0.6871293851542037,False,False,0.48909251539188997,0.7406555699252353,8,1
interoceptive,0.7558423236696242,False,True,0.5028114884707375,0.7432539173617041,8,1
interoceptive,0.6802580913026618,False,True,0.3992415366879232,0.7646130385076089,8,1
interoceptive,0.6122322821723957,False,True,0.5071758837128838,0.5773700798945938,8,1
interoceptive,0.5510090539551561,True,True,0.40984424797071,0.4815046681740618,8,1
interoceptive,0.4959081485596405,True,False,0.6308827108268047,0.5578338628839237,8,1
interoceptive,0.5454989634156046,True,True,0.4997826297850345,0.691574277086767,8,1
interoceptive,0.4909490670740441,False,True,0.4028329954897978,0.6266817400698654,8,1
interoceptive,0.4418541603666397,True,False,0.42967088497035505,0.39240382354802456,8,1
interoceptive,0.48603957640330375,False,True,0.5076993970669944,0.4937123250895432,8,1
interoceptive,0.4374356187629734,True,True,0.5324365793932412,0.3521600003032998,8,1
interoceptive,0.393692056886676,False,False,0.5292866007453799,0.38167759892005204,8,1
interoceptive,0.43306126257534366,False,False,0.3547237298035947,0.3091135696612261,8,1
interoceptive,0.47636738883287805,False,True,0.3586601406193446,0.4283268896557402,8,1
interoceptive,0.42873064994959026,False,True,0.44794533591517116,0.4170350304449903,8,1
interoceptive,0.38585758495463124,False,False,0.35013405531845254,0.4119310260909015,8,1
interoceptive,0.4244433434500944,False,True,0.5907701891230239,0.35598324048494495,8,1
interoceptive,0.38199900910508494,False,False,0.48511097017673266,0.3014959145439032,8,1
interoceptive,0.42019891001559345,False,True,0.6158048178596205,0.5882187284226087,8,1
interoceptive,0.3781790190140341,False,True,0.5387714663208507,0.42562235185552694,8,1
interoceptive,0.34036111711263073,True,False,0.5672223097222698,0.21956134108072295,8,1
interoceptive,0.3743972288238938,True,False,0.4306604446744582,0.2564753330067958,8,1
interoceptive,0.4118369517062832,True,False,0.50881401989043,0.28123342932327766,8,1
interoceptive,0.45302064687691157,True,False,0.3904384312196326,0.48262421308005476,8,1
control,0.5096431289283908,False,True,0.5880049644774514,0.6141037025745806,8,1
control,0.4586788160355517,True,True,0.3843474892267977,0.5325368709347901,8,1
control,0.41281093443199657,True,False,0.41767661923386756,0.42410315360360323,8,1
control,0.45409202787519626,True,True,0.5055819082351292,0.5264447435848272,8,1
control,0.4086828250876766,True,False,0.5677508789920261,0.32503870148207814,8,1
control,0.4495511075964443,True,True,0.5518113434890359,0.3853807495104049,8,1
control,0.40459599683679986,True,False,0.435129516211877,0.30031242597498503,8,1
control,0.4450555965204799,False,False,0.4140593762971593,0.47431828697699474,8,1
control,0.48956115617252793,False,True,0.5602324052381631,0.6493347715003325,8,1
control,0.44060504055527516,True,True,0.5795854865623175,0.6085695140298724,8,1
control,0.39654453649974764,True,False,0.7222248904412845,0.4459539502759082,8,1
control,0.4361989901497224,False,False,0.4255502900318969,0.4048221966002845,8,1
control,0.4798188891646947,True,False,0.5400602152322433,0.5332742103927182,8,1
control,0.5278007780811642,False,False,0.4552237575298517,0.6083905543981915,8,1
control,0.5805808558892807,False,True,0.571646675687599,0.6042895717560609,8,1
control,0.5225227703003527,True,True,0.39099437418766586,0.7294277954393982,8,1
control,0.4702704932703174,True,True,0.4359692070275309,0.503988212126096,8,1
control,0.42324344394328567,True,False,0.5949334946469648,0.33847376884314007,8,1
control,0.46556778833761425,True,False,0.5091479855070487,0.46550083493712374,8,1
control,0.5121245671713757,True,False,0.48842015740326145,0.2482510730193198,8,1
control,0.5633370238885133,True,False,0.30272964217119525,0.4964877083978566,8,1
control,0.6196707262773646,False,False,0.4693196504700395,0.6834995392422778,8,1
control,0.6816377989051011,False,True,0.44002489886298923,0.7554408550977576,8,1
control,0.613474019014591,False,False,0.4989373097964848,0.6036513803723305,8,1
control,0.6748214209160501,False,False,0.41965111742747097,0.59623259248803,8,1
control,0.7423035630076552,False,True,0.4580749300908462,0.7366441804932649,8,1
control,0.6680732067068897,False,True,0.31205939238158376,0.7381174390040317,8,1
control,0.6012658860362008,True,False,0.40772392620478604,0.493485524551222,8,1
control,0.6613924746398209,True,True,0.5541574995369065,0.5552044957860396,8,1
control,0.5952532271758388,False,False,0.530627974215022,0.5199019628928137,8,1
control,0.6547785498934228,False,True,0.5039594640801046,0.5824184663612125,8,1
control,0.5893006949040805,False,False,0.3779793400236121,0.6330465938514586,8,1
control,0.6482307643944887,True,True,0.5601960284091582,0.590412360221966,8,1
