condition,contrast,is_synchronous,response,rt,detection_prob,participant_id,trial_num
control,0.5,True,False,0.45287753801723046,0.4887412905766159,1,1
control,0.55,False,False,0.41819736920955713,0.5079692774586768,1,1
control,0.6050000000000001,False,False,0.5521772323735791,0.6597455500857259,1,1
control,0.6655000000000002,True,False,0.5156384367716744,0.5990918460392095,1,1
control,0.7320500000000003,True,True,0.47446797717213224,0.7639135138047288,1,1
control,0.6588450000000003,False,True,0.6675515316302312,0.6885879790629224,1,1
control,0.5929605000000003,False,True,0.6994986388554457,0.44789222072688917,1,1
control,0.5336644500000003,True,True,0.5673624599340436,0.6440364848260693,1,1
control,0.48029800500000025,True,True,0.5646688926439356,0.612187897593165,1,1
control,0.43226820450000025,False,True,0.4756286377074955,0.4738501627539975,1,1
control,0.3890413840500002,True,False,0.583824171078356,0.3711026740213038,1,1
control,0.4279455224550003,False,False,0.3937351637807733,0.4986494676995614,1,1
control,0.47074007470050033,True,False,0.6335512203775467,0.6114115628501718,1,1
control,0.5178140821705504,True,False,0.5904734426590065,0.4248884800162899,1,1
control,0.5695954903876055,True,False,0.5090537050129657,0.4116176579918307,1,1
control,0.626555039426366,False,False,0.5010040707437949,0.7155440601663481,1,1
control,0.6892105433690027,True,False,0.4570247192609749,0.5518783295165095,1,1
control,0.758131597705903,False,False,0.5545263454932777,0.6648799468532659,1,1
control,0.8339447574764933,True,True,0.5599559461131608,0.863367405073421,1,1
control,0.750550281728844,False,True,0.5349240341515676,0.5536671357496111,1,1
control,0.6754952535559596,False,True,0.7440668937106384,0.719057919115176,1,1
control,0.6079457282003636,True,True,0.4746353176470023,0.5397208577837129,1,1
control,0.5471511553803273,False,True,0.7192661174395885,0.5040587976517898,1,1
control,0.4924360398422946,False,True,0.529782796264144,0.4613247025483071,1,1
control,0.44319243585806517,True,False,0.6558255303404963,0.33482714776442773,1,1
control,0.48751167944387175,False,True,0.48245272374883336,0.30418765091397787,1,1
control,0.4387605114994846,False,True,0.4866856842525894,0.4439072220266696,1,1
control,0.3948844603495361,False,False,0.4879434687590735,0.4062765140497523,1,1
control,0.4343729063844898,True,True,0.4685847777008183,0.4823835067787782,1,1
control,0.3909356157460408,True,True,0.5192855915306779,0.44804053820294615,1,1
control,0.3518420541714367,False,True,0.5822730754036114,0.41644094410336685,1,1
control,0.31665784875429304,False,False,0.640112222001786,0.31889273232777343,1,1
control,0.34832363362972235,False,True,0.5206116727530384,0.2681629220972632,1,1
control,0.3134912702667501,True,False,0.443264796103305,0.33212433644874584,1,1
control,0.34484039729342514,False,True,0.40113635801102754,0.5117046509439918,1,1
control,0.31035635756408264,True,True,0.5456896511088769,0.423227377433507,1,1
control,0.27932072180767437,False,False,0.5188931318238013,0.49674837782852554,1,1
control,0.30725279398844185,True,True,0.42755136331816124,0.28323268926120054,1,1
control,0.2765275145895977,True,False,0.46787607148161936,0.4137616885532894,1,1
control,0.30418026604855747,True,True,0.5608978680935285,0.35265961984721317,1,1
control,0.2737622394437017,True,False,0.3906819472586418,0.4955330824535221,1,1
control,0.3011384633880719,True,False,0.5064227533711407,0.4356677359116324,1,1
control,0.3312523097268791,False,True,0.48867070962550047,0.516664968058443,1,1
control,0.2981270787541912,False,True,0.38158038969094976,0.4839871935978767,1,1
control,0.2683143708787721,False,False,0.6750234554509502,0.5489747608438474,1,1
control,0.2951458079666493,True,False,0.6425562755181143,0.4079727303018277,1,1
control,0.32466038876331427,True,False,0.4847819196405022,0.27999947234797523,1,1
control,0.35712642763964575,False,False,0.5698915819659712,0.39099714733690305,1,1
control,0.3928390704036104,False,True,0.4745398218948651,0.5724678572919677,1,1
control,0.3535551633632493,True,False,0.4402664652205618,0.19953870049228525,1,1
interoceptive,0.5,True,False,0.527397532174336,0.5406990011788092,1,1
interoceptive,0.55,True,False,0.48199927798629,0.7008658935253604,1,1
interoceptive,0.6050000000000001,False,True,0.3344742778768835,0.6061370621577192,1,1
interoceptive,0.5445000000000001,True,False,0.581137900322148,0.5794814752680756,1,1
interoceptive,0.5989500000000002,False,False,0.5581577646799825,0.47024445521982217,1,1
interoceptive,0.6588450000000002,True,True,0.4256153761224128,0.6514270879346024,1,1
interoceptive,0.5929605000000002,False,True,0.5836567445172761,0.5934320572332389,1,1
interoceptive,0.5336644500000002,False,True,0.6497886165480506,0.7740545614612131,1,1
interoceptive,0.4802980050000002,True,False,0.6537587053282433,0.4371286844552083,1,1
interoceptive,0.5283278055000002,False,True,0.6201462259048223,0.5413339517128103,1,1
interoceptive,0.47549502495000023,True,False,0.44635321116827614,0.4674538321871287,1,1
interoceptive,0.5230445274450003,False,True,0.6345240760553695,0.5169255826128097,1,1
interoceptive,0.4707400747005003,True,False,0.5407037009980923,0.36529998955088466,1,1
interoceptive,0.5178140821705504,True,True,0.46911200436174044,0.5942906031543128,1,1
interoceptive,0.46603267395349535,False,False,0.5763107235421058,0.2576756021752466,1,1
interoceptive,0.5126359413488449,False,False,0.4950111602889517,0.48960626815875946,1,1
interoceptive,0.5638995354837295,False,False,0.6606408480598631,0.5520388488825007,1,1
interoceptive,0.6202894890321025,True,True,0.5658103029551846,0.5708431579339469,1,1
interoceptive,0.5582605401288923,True,False,0.5193222455023893,0.6681795466122687,1,1
interoceptive,0.6140865941417816,False,True,0.5307218034826015,0.7593879267502361,1,1
interoceptive,0.5526779347276034,True,True,0.479352485304231,0.48132137753809046,1,1
interoceptive,0.49741014125484306,True,False,0.47052457654307916,0.5260301478442796,1,1
interoceptive,0.5471511553803274,False,True,0.5741337187614908,0.6475639618467468,1,1
interoceptive,0.4924360398422947,False,True,0.6473777903884724,0.57440350014542,1,1
interoceptive,0.4431924358580653,True,True,0.38609352590601625,0.5584342056702365,1,1
interoceptive,0.39887319227225876,True,False,0.5937788013100829,0.29688986828764075,1,1
interoceptive,0.4387605114994847,False,True,0.4781495000047133,0.43257098569228325,1,1
interoceptive,0.3948844603495362,False,False,0.37323696438050286,0.35343395371127845,1,1
interoceptive,0.4343729063844899,False,False,0.44250862505263777,0.345479738079553,1,1
interoceptive,0.4778101970229389,False,False,0.39139934581395863,0.5443406293363346,1,1
interoceptive,0.5255912167252329,True,False,0.5766114544328419,0.6079485507366129,1,1
interoceptive,0.5781503383977562,True,False,0.44264809915184167,0.6383026362148905,1,1
interoceptive,0.6359653722375319,True,False,0.5665880317855098,0.6067434473928253,1,1
interoceptive,0.6995619094612852,False,True,0.43737663930663967,0.6565754143632748,1,1
interoceptive,0.6296057185151567,True,True,0.5904518572283253,0.5336291315693418,1,1
interoceptive,0.5666451466636411,True,False,0.5083286018117819,0.6108026509410951,1,1
interoceptive,0.6233096613300052,True,True,0.5414310696389026,0.6919477340185592,1,1
interoceptive,0.5609786951970047,False,True,0.5226284860608312,0.7103192217443417,1,1
interoceptive,0.5048808256773043,True,True,0.4053735980622887,0.41716865830813754,1,1
interoceptive,0.4543927431095739,False,False,0.3854447919324062,0.31077609488422886,1,1
interoceptive,0.49983201742053135,False,False,0.37392392782031897,0.5139410537916684,1,1
interoceptive,0.5498152191625846,False,False,0.6645714236964567,0.7404424475166852,1,1
interoceptive,0.6047967410788431,False,False,0.6390663541080869,0.645511289055803,1,1
interoceptive,0.6652764151867274,False,True,0.5754006491679649,0.4750660943581444,1,1
interoceptive,0.5987487736680547,True,True,0.5627246457770602,0.5977660327737716,1,1
interoceptive,0.5388738963012493,False,True,0.5957041906242095,0.5450679473103811,1,1
interoceptive,0.48498650667112436,True,False,0.4568709057013201,0.48170805337152706,1,1
interoceptive,0.5334851573382369,True,False,0.43382588029212454,0.3522656685329437,1,1
interoceptive,0.5868336730720606,True,True,0.5440772079136117,0.5796531001439443,1,1
interoceptive,0.5281503057648546,True,True,0.6313980297427093,0.6068805876990954,1,1
exteroceptive,0.5,False,False,0.4451617859096716,0.2792753006022817,1,1
exteroceptive,0.55,True,True,0.483741843980114,0.5316797369899112,1,1
exteroceptive,0.49500000000000005,True,False,0.47147109124157544,0.36269073337952773,1,1
exteroceptive,0.5445000000000001,False,False,0.6071761005110142,0.5595334655174026,1,1
exteroceptive,0.5989500000000002,True,True,0.4926191867425824,0.5798687326359206,1,1
exteroceptive,0.5390550000000002,False,False,0.5717557689966625,0.5472155095939226,1,1
exteroceptive,0.5929605000000002,True,True,0.6232642217795833,0.4416534947576093,1,1
exteroceptive,0.5336644500000002,False,False,0.520546411036247,0.5596172027150454,1,1
exteroceptive,0.5870308950000003,False,False,0.6029233051046954,0.5221729477418819,1,1
exteroceptive,0.6457339845000003,False,False,0.20114957591548505,0.43677377967074105,1,1
exteroceptive,0.7103073829500004,True,True,0.4701646554943731,0.6774133083053963,1,1
exteroceptive,0.6392766446550003,False,True,0.18898201388832056,0.5636286816434437,1,1
exteroceptive,0.5753489801895003,False,True,0.4932327468450949,0.7065423677813996,1,1
exteroceptive,0.5178140821705502,False,True,0.4936684117576482,0.6305060620034276,1,1
exteroceptive,0.46603267395349524,True,True,0.5317734143620623,0.4908967340522017,1,1
exteroceptive,0.4194294065581457,False,False,0.4177757628929352,0.5649276820987068,1,1
exteroceptive,0.4613723472139603,True,False,0.5411283276011126,0.4949579142423996,1,1
exteroceptive,0.5075095819353563,True,False,0.39122040227265553,0.6090454358154979,1,1
exteroceptive,0.558260540128892,False,True,0.4077008319610214,0.5792348177443801,1,1
exteroceptive,0.5024344861160028,True,False,0.5378331174684232,0.5230971364218429,1,1
exteroceptive,0.5526779347276032,True,True,0.5717978785601835,0.5394186066357598,1,1
exteroceptive,0.4974101412548429,False,True,0.5008201267665924,0.5479715016146507,1,1
exteroceptive,0.44766912712935863,True,True,0.6079977273344754,0.5471098146041736,1,1
exteroceptive,0.40290221441642277,True,True,0.5894356387809716,0.518504302729131,1,1
exteroceptive,0.3626119929747805,False,False,0.4305886792798072,0.30831294667422715,1,1
exteroceptive,0.39887319227225854,False,True,0.5302691191875659,0.44049578125864586,1,1
exteroceptive,0.3589858730450327,True,True,0.6001667034472017,0.27166393625081225,1,1
exteroceptive,0.3230872857405295,True,True,0.5021441580899628,0.35448124729880526,1,1
exteroceptive,0.29077855716647655,False,False,0.5391338499213556,0.31842113582140513,1,1
exteroceptive,0.3198564128831242,False,True,0.5155550171919306,0.1911264378630134,1,1
exteroceptive,0.2878707715948118,True,False,0.38616701715237955,0.36163574580790925,1,1
exteroceptive,0.316657848754293,True,False,0.6477481819041112,0.3227605563467159,1,1
exteroceptive,0.3483236336297223,True,True,0.5365185900530568,0.4331590250981496,1,1
exteroceptive,0.31349127026675006,True,False,0.3637993050694202,0.33778201042650957,1,1
exteroceptive,0.3448403972934251,False,False,0.6223152433962412,0.3329722234423209,1,1
exteroceptive,0.37932443702276764,True,False,0.5394781460891739,0.4190739655689947,1,1
exteroceptive,0.4172568807250444,False,True,0.5465514567864047,0.5388537449760903,1,1
exteroceptive,0.37553119265254,False,True,0.4085909971059055,0.540774353183737,1,1
exteroceptive,0.33797807338728597,False,False,0.4507866450094371,0.44757995253088856,1,1
exteroceptive,0.3717758807260146,True,False,0.39269854071844196,0.458982917378415,1,1
exteroceptive,0.40895346879861605,True,True,0.5367645415596073,0.36337391418539433,1,1
exteroceptive,0.3680581219187545,True,True,0.5168516131629004,0.6099083490828872,1,1
exteroceptive,0.331252309726879,True,False,0.6368957234225893,0.27224112635995007,1,1
exteroceptive,0.36437754069956696,True,False,0.5916463499642777,0.4050744882466159,1,1
exteroceptive,0.4008152947695237,False,True,0.5293027241060692,0.4082985733484226,1,1
exteroceptive,0.36073376529257134,False,True,0.43041942584711745,0.5120246038501262,1,1
exteroceptive,0.3246603887633142,True,True,0.45985412001699083,0.43649171654672075,1,1
exteroceptive,0.2921943498869828,True,False,0.6310374728307869,0.24023760100776698,1,1
exteroceptive,0.32141378487568106,False,False,0.44255721469971865,0.4365567063944117,1,1
exteroceptive,0.3535551633632492,True,False,0.27157651618469464,0.3776324142915714,1,1
exteroceptive,0.38891067969957416,True,True,0.4062311370942676,0.4216026206834102,2,1
exteroceptive,0.35001961172961676,True,True,0.6249075781185204,0.24390838477310803,2,1
exteroceptive,0.3150176505566551,False,True,0.5075855023296114,0.2560480821076378,2,1
exteroceptive,0.2835158855009896,False,False,0.5181446254540193,0.26995521498999897,2,1
exteroceptive,0.3118674740510886,True,True,0.49183770357674317,0.4733164423567283,2,1
exteroceptive,0.28068072664597976,True,True,0.4231405117821936,0.5117744122144086,2,1
exteroceptive,0.2526126539813818,True,False,0.46950543655510507,0.34547651751162406,2,1
exteroceptive,0.27787391937952,False,False,0.6090071921169017,0.41770553859168974,2,1
exteroceptive,0.30566131131747204,False,False,0.3175763651560549,0.21288097491483007,2,1
exteroceptive,0.33622744244921926,True,True,0.44438387367528476,0.6156325789325903,2,1
exteroceptive,0.30260469820429736,False,False,0.4655462500935908,0.08171580029115433,2,1
exteroceptive,0.3328651680247271,False,False,0.404442786015427,0.25823394845568937,2,1
exteroceptive,0.36615168482719984,True,False,0.4274712928121945,0.2919680531724671,2,1
exteroceptive,0.40276685330991985,True,True,0.47336077243348534,0.5080741567350012,2,1
exteroceptive,0.36249016797892786,True,False,0.452412738722912,0.4060017426212852,2,1
exteroceptive,0.3987391847768207,True,False,0.4442154636894027,0.4121876248797229,2,1
exteroceptive,0.4386131032545028,False,False,0.4596891605072749,0.5090503408113651,2,1
exteroceptive,0.48247441357995313,False,False,0.41494249376241527,0.5926179689809973,2,1
exteroceptive,0.5307218549379484,True,False,0.5979171016110052,0.5922904072631232,2,1
exteroceptive,0.5837940404317433,False,True,0.4992833929754648,0.707008595741438,2,1
exteroceptive,0.525414636388569,False,True,0.40599318563285663,0.5150142900288084,2,1
exteroceptive,0.47287317274971213,False,False,0.5204682896261134,0.6308491338532516,2,1
exteroceptive,0.5201604900246833,True,True,0.34469375249695405,0.4384520276210255,2,1
exteroceptive,0.46814444102221503,True,True,0.4377085489521894,0.693179849761115,2,1
exteroceptive,0.4213299969199935,False,True,0.5885607480195594,0.5475679292783044,2,1
exteroceptive,0.37919699722799416,True,True,0.40070733508610795,0.34616905767779044,2,1
exteroceptive,0.34127729750519475,True,False,0.5653118293278413,0.2628710485571343,2,1
exteroceptive,0.3754050272557143,False,False,0.4040252684369189,0.4762710512091513,2,1
exteroceptive,0.41294552998128575,True,False,0.5604064852845199,0.41547655943963896,2,1
exteroceptive,0.4542400829794144,False,True,0.46928494428240153,0.5036324754654661,2,1
exteroceptive,0.40881607468147296,True,True,0.6815868632092091,0.3533711451343138,2,1
exteroceptive,0.3679344672133257,False,True,0.4188212301754247,0.3719146349206958,2,1
exteroceptive,0.3311410204919931,False,False,0.42519807117658337,0.6503957433807119,2,1
exteroceptive,0.36425512254119247,False,False,0.42792867611656227,0.31260726581990617,2,1
exteroceptive,0.40068063479531174,False,False,0.3143704340325559,0.5755233675679174,2,1
exteroceptive,0.440748698274843,True,True,0.6183625946271267,0.6647729388388739,2,1
exteroceptive,0.3966738284473587,False,True,0.35456234767293987,0.34196421613286465,2,1
exteroceptive,0.35700644560262285,True,False,0.5362966881147735,0.3024686872124718,2,1
exteroceptive,0.3927070901628852,True,False,0.6675023606062359,0.37768546274411186,2,1
exteroceptive,0.4319777991791737,False,True,0.7047495367412349,0.5256921475671679,2,1
exteroceptive,0.3887800192612564,True,False,0.7875673652437934,0.4664817032200214,2,1
exteroceptive,0.42765802118738205,False,True,0.5714136396041459,0.3620180284017768,2,1
exteroceptive,0.38489221906864385,False,False,0.45726307312055176,0.1613922916859768,2,1
exteroceptive,0.4233814409755083,False,True,0.46691213400605774,0.44342491878395834,2,1
exteroceptive,0.38104329687795746,False,False,0.5825738617363667,0.49672368524394755,2,1
exteroceptive,0.4191476265657532,True,False,0.5988557619365846,0.45472422300611787,2,1
exteroceptive,0.46106238922232856,True,True,0.4536014729326807,0.45160037953583093,2,1
exteroceptive,0.4149561503000957,True,False,0.6155116001888143,0.3541314540253768,2,1
exteroceptive,0.4564517653301053,True,True,0.5818814126265677,0.45995136534144193,2,1
exteroceptive,0.41080658879709475,False,True,0.3822091249130656,0.45133829233184564,2,1
interoceptive,0.4753352751883691,False,True,0.6753486708031318,0.3170118843934725,2,1
interoceptive,0.4278017476695322,True,False,0.663354715169076,0.5265726560969555,2,1
interoceptive,0.4705819224364855,False,False,0.6714272703448172,0.4169546888758031,2,1
interoceptive,0.517640114680134,True,True,0.38984935486117894,0.4756076301926881,2,1
interoceptive,0.46587610321212064,True,True,0.5750465339608598,0.6910955319440075,2,1
interoceptive,0.4192884928909086,False,False,0.38288205183846036,0.29180662189694423,2,1
interoceptive,0.4612173421799995,False,True,0.4329941783527425,0.47731282569082883,2,1
interoceptive,0.41509560796199957,False,False,0.5010054641739159,0.19955497411180578,2,1
interoceptive,0.45660516875819956,True,False,0.49475296058748525,0.3845381885932058,2,1
interoceptive,0.5022656856340195,True,True,0.48752110151626793,0.5014778567242587,2,1
interoceptive,0.45203911707061756,False,True,0.3808673916177467,0.425841246397296,2,1
interoceptive,0.40683520536355583,False,False,0.510363107696701,0.3776828165760839,2,1
interoceptive,0.44751872589991143,True,False,0.4423205365560955,0.40356176795674753,2,1
interoceptive,0.4922705984899026,False,True,0.41701001965448764,0.5060961779888586,2,1
interoceptive,0.4430435386409124,False,True,0.561355897077525,0.28389454258152336,2,1
interoceptive,0.3987391847768212,False,True,0.46344550947500845,0.4376573679245778,2,1
interoceptive,0.35886526629913906,True,False,0.6516642849995634,0.4998814270689609,2,1
interoceptive,0.394751792929053,False,False,0.4957036590129816,0.42184595720182283,2,1
interoceptive,0.43422697222195833,False,True,0.5087729520332923,0.24929213937710826,2,1
interoceptive,0.3908042749997625,True,False,0.42954882461017646,0.33653748959259716,2,1
interoceptive,0.4298847024997388,True,False,0.5711387293270019,0.3514447287412433,2,1
interoceptive,0.47287317274971274,True,True,0.5002150506962677,0.3533556878505322,2,1
interoceptive,0.4255858554747415,False,False,0.3430233211697092,0.27817220300337575,2,1
interoceptive,0.46814444102221564,True,False,0.3999815021867921,0.4146525836012265,2,1
interoceptive,0.5149588851244372,True,False,0.46598073855150984,0.5305672498836203,2,1
interoceptive,0.566454773636881,True,False,0.5290149648855322,0.4791026092489359,2,1
interoceptive,0.6231002510005692,False,True,0.6081131118668927,0.6637748068806019,2,1
interoceptive,0.5607902259005123,True,False,0.5197690309785008,0.7125108262959822,2,1
interoceptive,0.6168692484905636,False,True,0.5519512064051401,0.6877831917443961,2,1
interoceptive,0.5551823236415072,True,False,0.44088587601394186,0.5738737453842451,2,1
interoceptive,0.610700556005658,True,False,0.4742291489640556,0.571943376611257,2,1
interoceptive,0.6717706116062239,True,False,0.512671502507148,0.6936144647645257,2,1
interoceptive,0.7389476727668464,False,True,0.5042294726778687,0.8636210065711125,2,1
interoceptive,0.6650529054901617,True,True,0.4764028947632753,0.7762916265745166,2,1
interoceptive,0.5985476149411456,False,False,0.4428152433231176,0.5753230720780534,2,1
interoceptive,0.6584023764352602,False,False,0.5669951433512075,0.7965177705071771,2,1
interoceptive,0.7242426140787863,False,True,0.3105203586635534,0.6810776802115759,2,1
interoceptive,0.6518183526709077,True,True,0.3669389412792093,0.7909966501876571,2,1
interoceptive,0.586636517403817,False,False,0.5876942497112861,0.5776082254920066,2,1
interoceptive,0.6453001691441987,True,True,0.4245639776152248,0.6173553027994674,2,1
interoceptive,0.5807701522297789,False,False,0.607086973034654,0.5418590106513593,2,1
interoceptive,0.6388471674527568,True,True,0.5374523241434906,0.6871969884263996,2,1
interoceptive,0.5749624507074812,True,False,0.48962570042382386,0.6435162513175943,2,1
interoceptive,0.6324586957782293,True,True,0.4837497240449036,0.6751385627385398,2,1
interoceptive,0.5692128262004064,True,True,0.5127352599293876,0.615575544363341,2,1
interoceptive,0.5122915435803658,True,True,0.4884506336434857,0.7125176661239275,2,1
interoceptive,0.4610623892223292,False,False,0.44766637081339955,0.3233633542417632,2,1
interoceptive,0.5071686281445622,False,False,0.49319913544911376,0.48904921189440254,2,1
interoceptive,0.5578854909590185,True,False,0.5329939561823764,0.32091270394780613,2,1
interoceptive,0.6136740400549204,True,True,0.522891939806872,0.688139756424782,2,1
control,0.38891067969957427,False,True,0.5361624775304221,0.5142871232775972,2,1
control,0.3500196117296169,False,False,0.5040594519191663,0.3541333861156176,2,1
control,0.3850215729025786,True,False,0.6153350628949523,0.2128026102430064,2,1
control,0.4235237301928365,True,False,0.6149069861494032,0.3013760591976946,2,1
control,0.4658761032121202,False,True,0.37926026155725345,0.3929708989911797,2,1
control,0.4192884928909082,True,True,0.40025792781471936,0.55857453186188,2,1
control,0.3773596436018174,True,False,0.6369566249688491,0.510171949263704,2,1
control,0.4150956079619992,True,True,0.6191766307111118,0.5061507690151884,2,1
control,0.3735860471657993,False,True,0.32327972468225896,0.4403812541227929,2,1
control,0.33622744244921937,True,False,0.5451088819354336,0.5454729013775399,2,1
control,0.3698501866941413,False,True,0.6407399733369856,0.43435702512099267,2,1
control,0.3328651680247272,True,False,0.4831203266108439,0.3215000836228733,2,1
control,0.36615168482719995,False,True,0.4713458564374406,0.38196812632728416,2,1
control,0.32953651634447995,True,False,0.48039888329202673,0.3641609807108653,2,1
control,0.36249016797892797,True,True,0.589331285770066,0.4184944316230498,2,1
control,0.3262411511810352,True,False,0.47729447724596524,0.5328510141085184,2,1
control,0.35886526629913873,True,False,0.33061984422462515,0.32846072726611086,2,1
control,0.39475179292905266,False,False,0.5454143782649828,0.5212354521503078,2,1
control,0.43422697222195794,True,True,0.5710257820270277,0.5098405439887083,2,1
control,0.39080427499976217,False,True,0.6027678591716251,0.471871032119578,2,1
control,0.35172384749978597,True,True,0.44167805315915015,0.6099127840292697,2,1
control,0.3165514627498074,False,False,0.5882383577830821,0.30822789524022354,2,1
control,0.34820660902478817,True,False,0.42660015984201566,0.5354107345385019,2,1
control,0.38302726992726704,False,False,0.500809394901402,0.5089680067339399,2,1
control,0.4213299969199938,False,False,0.5023343793331576,0.3470170355519619,2,1
control,0.4634629966119932,False,False,0.36633877398673104,0.5277485354547675,2,1
control,0.5098092962731926,True,True,0.4967237419182742,0.6649421345599258,2,1
control,0.45882836664587334,False,True,0.4372558565136754,0.44425500809770513,2,1
control,0.41294552998128603,True,True,0.534717178220963,0.6047659724811469,2,1
control,0.3716509769831574,False,False,0.4118925845284048,0.559934167659262,2,1
control,0.4088160746814732,True,False,0.5305706435851977,0.3858578073379813,2,1
control,0.4496976821496205,True,True,0.4517787846601703,0.5513520903075341,2,1
control,0.40472791393465846,False,False,0.43935549254489675,0.4127966084787141,2,1
control,0.44520070532812434,False,False,0.4730567089366863,0.337291292370939,2,1
control,0.4897207758609368,False,False,0.5524147010211012,0.48131336603097696,2,1
control,0.5386928534470306,False,False,0.2884340433586303,0.5032177035774716,2,1
control,0.5925621387917337,True,True,0.6848107610910713,0.5954938782894079,2,1
control,0.5333059249125603,False,True,0.5237894129390027,0.5292636969836393,2,1
control,0.4799753324213043,True,False,0.4336919837378108,0.46596560531828174,2,1
control,0.5279728656634348,True,False,0.49723078886166583,0.39925630895497577,2,1
control,0.5807701522297783,True,True,0.5861359692173701,0.6437835771610491,2,1
control,0.5226931370068005,True,False,0.5504941886964371,0.5196016788566924,2,1
control,0.5749624507074806,False,True,0.45160120266126946,0.5571893333478269,2,1
control,0.5174662056367326,False,False,0.6779457782717635,0.6735792807759688,2,1
control,0.5692128262004059,True,False,0.4052683308686002,0.5156409207223326,2,1
control,0.6261341088204465,False,False,0.728723602346152,0.6833355088186147,2,1
control,0.6887475197024913,True,True,0.24073511991872032,0.48769644225756653,2,1
control,0.6198727677322422,True,True,0.5849433140919371,0.5177663478472793,2,1
control,0.557885490959018,False,False,0.3641618538589309,0.5268980047919881,2,1
control,0.6136740400549198,True,True,0.457565572985209,0.6889404658115152,2,1
interoceptive,0.5523066360494284,False,True,0.665897712822652,0.4513421632842885,3,1
interoceptive,0.4970759724444856,False,True,0.48452141823653216,0.533390196894697,3,1
interoceptive,0.447368375200037,True,False,0.4918522186555933,0.5055117369413261,3,1
interoceptive,0.49210521272004076,False,False,0.4476315915174429,0.4865808942568793,3,1
interoceptive,0.5413157339920449,False,True,0.514323826672231,0.5719568800806434,3,1
interoceptive,0.4871841605928404,False,True,0.4130085638120873,0.6559096991712645,3,1
interoceptive,0.4384657445335564,False,False,0.3511744539299057,0.5351195543514663,3,1
interoceptive,0.48231231898691207,False,True,0.5434622352056447,0.5519558880953165,3,1
interoceptive,0.43408108708822085,True,True,0.44285883958278766,0.3816180751940558,3,1
interoceptive,0.3906729783793988,True,True,0.45856220204496073,0.4174567555727773,3,1
interoceptive,0.3516056805414589,True,True,0.4378612920854479,0.42949622623653666,3,1
interoceptive,0.31644511248731305,False,True,0.49236014705931985,0.27216719172803416,3,1
interoceptive,0.28480060123858175,False,False,0.5180472880179379,0.3975626874309829,3,1
interoceptive,0.3132806613624399,False,True,0.5171944151761566,0.32444141831127177,3,1
interoceptive,0.2819525952261959,False,True,0.5356870758698801,0.18426724472665879,3,1
interoceptive,0.25375733570357634,False,False,0.305616814925578,0.23692140524993519,3,1
interoceptive,0.279133069273934,True,True,0.5454073416882985,0.4311953465421111,3,1
interoceptive,0.2512197623465406,False,False,0.5929003659914739,0.09004157174343422,3,1
interoceptive,0.27634173858119465,True,False,0.4516497630256061,0.1934502405027687,3,1
interoceptive,0.30397591243931416,True,False,0.5221665130968935,0.16268442245092085,3,1
interoceptive,0.3343735036832456,False,False,0.6191553144843425,0.3221580400480304,3,1
interoceptive,0.36781085405157016,True,False,0.5733061073740481,0.4041938805151397,3,1
interoceptive,0.4045919394567272,False,True,0.5716339528718942,0.5127887018865495,3,1
interoceptive,0.3641327455110545,False,False,0.44332678333147624,0.27361498597443545,3,1
interoceptive,0.40054602006216,True,False,0.5757913626712543,0.5366329051369181,3,1
interoceptive,0.440600622068376,False,False,0.5615810718493317,0.39386262280792106,3,1
interoceptive,0.4846606842752137,True,True,0.4840931963281896,0.5989919754736874,3,1
interoceptive,0.4361946158476923,True,False,0.6412217072262206,0.3140058860218915,3,1
interoceptive,0.47981407743246157,False,True,0.6900377272863433,0.4992680639550074,3,1
interoceptive,0.4318326696892154,False,True,0.4492256708649852,0.5089619747958707,3,1
interoceptive,0.38864940272029386,False,False,0.5077776466912853,0.3347564045771714,3,1
interoceptive,0.42751434299232327,False,True,0.5548151765063171,0.45541161018644005,3,1
interoceptive,0.38476290869309093,True,True,0.4561841662251559,0.4370856692347087,3,1
interoceptive,0.34628661782378184,False,False,0.4233321407790665,0.3734485182961672,3,1
interoceptive,0.38091527960616006,False,False,0.584685308984846,0.3438475309478384,3,1
interoceptive,0.4190068075667761,True,True,0.5210841595959325,0.4557976210434699,3,1
interoceptive,0.37710612681009853,True,False,0.4286469993500404,0.2987668378907716,3,1
interoceptive,0.4148167394911084,True,False,0.5633868892560434,0.34521035049829807,3,1
interoceptive,0.4562984134402193,True,False,0.4693294824372713,0.5175756420007089,3,1
interoceptive,0.5019282547842413,False,False,0.36422690180181444,0.45220170241869123,3,1
interoceptive,0.5521210802626655,False,True,0.5961912014889335,0.574238023652973,3,1
interoceptive,0.49690897223639896,True,True,0.5758503317532518,0.5762067977119265,3,1
interoceptive,0.44721807501275906,True,True,0.5730231920095141,0.5870333752197068,3,1
interoceptive,0.40249626751148315,True,False,0.3657164713256237,0.5000584424814813,3,1
interoceptive,0.4427458942626315,True,False,0.5747625469178286,0.47634960476069405,3,1
interoceptive,0.48702048368889467,True,True,0.46601079844983867,0.5549533042999232,3,1
interoceptive,0.4383184353200052,True,False,0.5422658373152933,0.2227139998832792,3,1
interoceptive,0.48215027885200573,False,False,0.47037188030199295,0.5477313389319904,3,1
interoceptive,0.5303653067372064,True,True,0.4895310665053148,0.5500004957433723,3,1
interoceptive,0.4773287760634858,True,False,0.43669687069480945,0.3935032366761993,3,1
control,0.5523066360494278,True,True,0.5239089839141096,0.6307148268839993,3,1
control,0.497075972444485,False,False,0.5584558957469836,0.5113066510110583,3,1
control,0.5467835696889335,True,False,0.47623017063136014,0.4966200716415571,3,1
control,0.6014619266578269,False,False,0.5252791984010453,0.5561126552125498,3,1
control,0.6616081193236096,True,True,0.2845514227243501,0.657029054194483,3,1
control,0.5954473073912487,True,True,0.575711275550021,0.5193058155982159,3,1
control,0.5359025766521239,True,False,0.49764438726658017,0.3598160900415477,3,1
control,0.5894928343173363,False,False,0.45204466167376894,0.4307647970418097,3,1
control,0.64844211774907,True,True,0.6910732012295665,0.5742937033638031,3,1
control,0.5835979059741631,False,True,0.43805587183544087,0.7287543399797324,3,1
control,0.5252381153767468,True,True,0.5659039142831854,0.3600732163668042,3,1
control,0.47271430383907215,True,False,0.4794612509735751,0.6202160080362993,3,1
control,0.5199857342229794,True,True,0.5504399042189363,0.5204382463213006,3,1
control,0.46798716080068153,True,True,0.41459554057163706,0.39615228184905205,3,1
control,0.4211884447206134,True,True,0.5007409635372035,0.5030863091265543,3,1
control,0.3790696002485521,False,True,0.4519340421934205,0.6070266325850706,3,1
control,0.34116264022369686,True,False,0.5194580589105386,0.3581462469359781,3,1
control,0.3752789042460666,False,False,0.5341472848719839,0.46469569418366613,3,1
control,0.41280679467067327,True,True,0.4272718299773829,0.4149116414819237,3,1
control,0.37152611520360596,True,False,0.4269972398487644,0.30981376777503894,3,1
control,0.4086787267239666,True,True,0.4434081893591918,0.506970736099207,3,1
control,0.36781085405156994,True,True,0.6269252490998136,0.46234325462322085,3,1
control,0.3310297686464129,False,False,0.6141300670358397,0.3244185492154959,3,1
control,0.36413274551105423,True,True,0.5117616155762116,0.370788539212428,3,1
control,0.3277194709599488,True,False,0.44696279518183085,0.3935468117405246,3,1
control,0.3604914180559437,False,False,0.6346096770486637,0.38490343365743585,3,1
control,0.3965405598615381,True,False,0.5273936529693425,0.4086625138931823,3,1
control,0.4361946158476919,False,False,0.5725908271888559,0.46201742973722243,3,1
control,0.47981407743246113,True,False,0.42932611650597813,0.47386473634265547,3,1
control,0.5277954851757073,True,False,0.40941215954243104,0.5805093438279625,3,1
control,0.5805750336932781,False,True,0.5509147809451084,0.7034472962775261,3,1
control,0.5225175303239503,False,False,0.44172536849939126,0.4826542985361311,3,1
control,0.5747692833563454,False,True,0.2704526636996389,0.7204318481897835,3,1
control,0.5172923550207108,True,True,0.5086383618517937,0.5482077999828426,3,1
control,0.4655631195186397,True,True,0.7313980153268298,0.6362431114538125,3,1
control,0.4190068075667758,True,False,0.5599092124033271,0.39158510204290475,3,1
control,0.4609074883234534,False,False,0.39357572579676214,0.5607534462836847,3,1
control,0.5069982371557988,False,True,0.3482577141330471,0.5523289958003164,3,1
control,0.456298413440219,False,False,0.6300543552509671,0.5811812517749476,3,1
control,0.501928254784241,True,False,0.29722090466746137,0.5583193031143087,3,1
control,0.5521210802626652,False,False,0.4863223827201408,0.5062664903317408,3,1
control,0.6073331882889317,False,False,0.4032450483530147,0.4909890745492646,3,1
control,0.6680665071178249,True,True,0.3419992359898596,0.544565328704039,3,1
control,0.6012598564060424,False,True,0.5316028945412036,0.6506096283133613,3,1
control,0.5411338707654382,True,True,0.6232669099440207,0.6853666770960909,3,1
control,0.4870204836888944,False,False,0.4032091748002956,0.4501084610963767,3,1
control,0.5357225320577839,True,True,0.3703713121996899,0.5568101841756508,3,1
control,0.4821502788520055,False,True,0.5640858557924475,0.6342089068970176,3,1
control,0.43393525096680496,True,False,0.4098532418508082,0.48593881996069405,3,1
control,0.4773287760634855,False,False,0.6381547818884697,0.4884052527992993,3,1
exteroceptive,0.3697259299173853,False,True,0.6109593124055731,0.4594614684884674,3,1
exteroceptive,0.3327533369256468,True,True,0.4789171960897498,0.27095658522415067,3,1
exteroceptive,0.2994780032330821,False,True,0.35705484194276493,0.5434928767862168,3,1
exteroceptive,0.2695302029097739,False,True,0.531257307237199,0.3672835891447885,3,1
exteroceptive,0.24257718261879654,False,True,0.5997373811396612,0.3546522497922129,3,1
exteroceptive,0.2183194643569169,False,True,0.5280000623237825,0.34330447679889387,3,1
exteroceptive,0.1964875179212252,True,True,0.5303810552927061,0.4403757444551104,3,1
exteroceptive,0.17683876612910268,True,False,0.6030670270473419,0.4775609716937595,3,1
exteroceptive,0.19452264274201297,False,False,0.5666299402220226,0.19227983931820025,3,1
exteroceptive,0.2139749070162143,True,True,0.4580804037724587,0.30621907419775496,3,1
exteroceptive,0.19257741631459288,False,False,0.4746901183991009,0.1646430958356898,3,1
exteroceptive,0.21183515794605218,False,False,0.5057478583600993,0.15633353502148817,3,1
exteroceptive,0.2330186737406574,False,True,0.40272600719363993,0.2921758048067035,3,1
exteroceptive,0.20971680636659168,True,True,0.2724971464389394,0.299193195160978,3,1
exteroceptive,0.18874512572993252,True,False,0.6789856134655688,0.34849044383936384,3,1
exteroceptive,0.2076196383029258,False,False,0.5800161048256085,0.06397106419061335,3,1
exteroceptive,0.2283816021332184,False,False,0.3524301181853654,0.17042947197910308,3,1
exteroceptive,0.25121976234654025,False,True,0.4890407316595127,0.38928227928116854,3,1
exteroceptive,0.22609778611188625,True,False,0.5778394457600425,0.22883865399457193,3,1
exteroceptive,0.2487075647230749,False,False,0.42330467589928067,0.0562038601258254,3,1
exteroceptive,0.2735783211953824,True,False,0.4583004074826154,0.30086420129968594,3,1
exteroceptive,0.30093615331492063,False,False,0.40454688207324757,0.21688581372160012,3,1
exteroceptive,0.3310297686464127,False,False,0.5214758229342138,0.2363304558863357,3,1
exteroceptive,0.364132745511054,False,False,0.5533043873515959,0.22111283481894387,3,1
exteroceptive,0.40054602006215945,False,True,0.6075097878174948,0.4510439731930804,3,1
exteroceptive,0.36049141805594354,True,True,0.3939868084409757,0.464197870341599,3,1
exteroceptive,0.3244422762503492,False,False,0.39335334020464335,0.42672842312744846,3,1
exteroceptive,0.3568865038753842,True,False,0.6119071579120406,0.344736906454334,3,1
exteroceptive,0.3925751542629226,False,True,0.5032251633412063,0.490787809702692,3,1
exteroceptive,0.35331763883663037,True,False,0.5205117461268524,0.45915715334724216,3,1
exteroceptive,0.3886494027202934,True,False,0.6298673642562774,0.2796834151560137,3,1
exteroceptive,0.42751434299232277,True,False,0.5984236057508445,0.4520081998358414,3,1
exteroceptive,0.4702657772915551,True,True,0.5293733501557509,0.47923233454277364,3,1
exteroceptive,0.4232391995623996,False,False,0.6132942201607546,0.3277507474757414,3,1
exteroceptive,0.4655631195186396,True,True,0.4465936222175098,0.4941869361351664,3,1
exteroceptive,0.41900680756677566,False,True,0.5829791933274796,0.6368933361443077,3,1
exteroceptive,0.3771061268100981,True,False,0.41217937364993457,0.525434285122423,3,1
exteroceptive,0.4148167394911079,True,False,0.5904288229560489,0.5805261080332276,3,1
exteroceptive,0.45629841344021876,True,False,0.5073258435596562,0.46695711983602617,3,1
exteroceptive,0.5019282547842406,False,True,0.4749904530477282,0.5459073678644808,3,1
exteroceptive,0.45173542930581656,True,True,0.5055192418216237,0.4718912738896528,3,1
exteroceptive,0.40656188637523494,True,True,0.4886963587712953,0.3286293174279708,3,1
exteroceptive,0.3659056977377115,False,False,0.5742045455072748,0.38385981512988526,3,1
exteroceptive,0.40249626751148265,False,True,0.42010908345131753,0.589404925416647,3,1
exteroceptive,0.3622466407603344,True,False,0.32722098723302506,0.40387375732553693,3,1
exteroceptive,0.3984713048363679,False,False,0.5057158279337417,0.48338862016586703,3,1
exteroceptive,0.4383184353200047,True,False,0.5447519569837678,0.28242139624817497,3,1
exteroceptive,0.48215027885200523,True,True,0.44562112203056264,0.45124848263023404,3,1
exteroceptive,0.43393525096680474,True,True,0.3423208125834562,0.3976205220801775,3,1
exteroceptive,0.39054172587012426,False,True,0.6579117474212703,0.36857799531092333,3,1
interoceptive,0.5250616536698344,True,True,0.6157830053211929,0.5980273078827407,4,1
interoceptive,0.47255548830285093,False,True,0.4237029837353546,0.5549060654481255,4,1
interoceptive,0.42529993947256584,True,False,0.4343979023464177,0.29747576533880654,4,1
interoceptive,0.46782993341982243,True,False,0.6952067059529385,0.5018796758146432,4,1
interoceptive,0.5146129267618047,False,False,0.4157329676479721,0.5213542850822921,4,1
interoceptive,0.5660742194379852,False,True,0.3817028110255827,0.6693745612631743,4,1
interoceptive,0.5094667974941867,True,False,0.47343263887457065,0.5141263662939793,4,1
interoceptive,0.5604134772436054,False,False,0.5052302273937376,0.43874661127906817,4,1
interoceptive,0.6164548249679659,True,True,0.47674303927128747,0.6674400063741641,4,1
interoceptive,0.5548093424711693,False,True,0.48727344857579596,0.4554485160693729,4,1
interoceptive,0.4993284082240524,False,True,0.6994954888272318,0.4602053329298982,4,1
interoceptive,0.44939556740164716,True,True,0.6239370943907959,0.5591051695752082,4,1
interoceptive,0.40445601066148246,False,False,0.41123335842521413,0.3565382792322315,4,1
interoceptive,0.44490161172763076,False,False,0.5865856140839998,0.5107934564375548,4,1
interoceptive,0.4893917729003939,True,True,0.5573898402115283,0.38547835341651004,4,1
interoceptive,0.4404525956103545,False,False,0.4128225131861614,0.4728531521598776,4,1
interoceptive,0.48449785517139,True,True,0.4386464428309011,0.5339092622285342,4,1
interoceptive,0.436048069654251,True,False,0.612297644714037,0.47883660562359753,4,1
interoceptive,0.47965287661967615,True,True,0.5300172138457045,0.41395481099914877,4,1
interoceptive,0.43168758895770853,True,True,0.618255169169943,0.41119245823490597,4,1
interoceptive,0.3885188300619377,False,True,0.5611799762309477,0.36648856528223384,4,1
interoceptive,0.34966694705574397,True,False,0.5262112463976202,0.26259546389040733,4,1
interoceptive,0.3846336417613184,True,False,0.524873830145303,0.3370783539353434,4,1
interoceptive,0.4230970059374503,True,False,0.4486599820419827,0.33459481855059503,4,1
interoceptive,0.46540670653119537,False,False,0.39171938436129444,0.44032745113016913,4,1
interoceptive,0.5119473771843149,True,True,0.5604670132285584,0.3616128046945793,4,1
interoceptive,0.46075263946588346,False,False,0.5537991904884316,0.40984979617657147,4,1
interoceptive,0.5068279034124719,False,False,0.5247268256177583,0.5028960191436699,4,1
interoceptive,0.5575106937537191,False,False,0.5192327752958235,0.7100634055872737,4,1
interoceptive,0.6132617631290911,False,True,0.4537397275442259,0.5886783891667011,4,1
interoceptive,0.551935586816182,False,False,0.37275530691422304,0.4657567431166241,4,1
interoceptive,0.6071291454978003,False,False,0.41289300519833305,0.42268225838113865,4,1
interoceptive,0.6678420600475804,True,True,0.3135566212847363,0.7907635433282437,4,1
interoceptive,0.6010578540428224,False,True,0.5990509179358557,0.5866137182198977,4,1
interoceptive,0.5409520686385402,False,False,0.49999110645317935,0.5417610859376731,4,1
interoceptive,0.5950472755023942,False,True,0.6286424726643998,0.7650787440112251,4,1
interoceptive,0.5355425479521548,True,True,0.5741282505711272,0.5450669365044237,4,1
interoceptive,0.48198829315693936,False,False,0.6638459420528285,0.47894075465813235,4,1
interoceptive,0.5301871224726333,False,False,0.4376697206910941,0.6322956829236284,4,1
interoceptive,0.5832058347198967,True,False,0.5356601767879577,0.551700896733635,4,1
interoceptive,0.6415264181918865,True,False,0.5246892040107306,0.753854470437562,4,1
interoceptive,0.7056790600110752,False,True,0.5131480670330998,0.7179503495249151,4,1
interoceptive,0.6351111540099676,False,False,0.5664962851560849,0.6743482221550074,4,1
interoceptive,0.6986222694109645,False,False,0.619709678501826,0.6943962005924845,4,1
interoceptive,0.7684844963520611,False,True,0.43892622945720716,0.6640744966322204,4,1
interoceptive,0.691636046716855,False,True,0.5500811431351735,0.8265878577769712,4,1
interoceptive,0.6224724420451695,True,False,0.41506277451248696,0.5483534768073501,4,1
interoceptive,0.6847196862496865,False,True,0.4595048807788705,0.802966292800236,4,1
interoceptive,0.6162477176247179,True,False,0.5513481671781559,0.46668460268668777,4,1
interoceptive,0.6778724893871897,False,False,0.558242502753126,0.648033332884571,4,1
exteroceptive,0.3514875532831118,True,False,0.5042409154121692,0.47639251484613604,4,1
exteroceptive,0.386636308611423,False,True,0.5368560065241897,0.4788502593258231,4,1
exteroceptive,0.34797267775028073,True,False,0.4967950392868158,0.3240079162244865,4,1
exteroceptive,0.38276994552530885,True,True,0.721277093998976,0.36732326439296564,4,1
exteroceptive,0.344492950972778,True,False,0.4952080159712802,0.33161365961185857,4,1
exteroceptive,0.37894224607005583,True,True,0.4944661707138917,0.48916193855977075,4,1
exteroceptive,0.34104802146305024,False,False,0.3795482034208376,0.5769049808737718,4,1
exteroceptive,0.3751528236093553,False,True,0.4270266933409514,0.6678777280458106,4,1
exteroceptive,0.33763754124841977,False,True,0.2642612703607917,0.5165627161708091,4,1
exteroceptive,0.3038737871235778,True,False,0.42400022103540824,0.28297045726754455,4,1
exteroceptive,0.3342611658359356,False,True,0.3991827358603623,0.42060274991132357,4,1
exteroceptive,0.30083504925234206,True,False,0.6192446174331119,0.3170323876924136,4,1
exteroceptive,0.33091855417757626,False,False,0.4084206986506622,0.4491519676496322,4,1
exteroceptive,0.36401040959533393,False,True,0.3022129639596997,0.41769243586596927,4,1
exteroceptive,0.32760936863580054,False,False,0.5357925142716954,0.4275102832319626,4,1
exteroceptive,0.3603703054993806,False,False,0.49806539516436354,0.3717087650354359,4,1
exteroceptive,0.39640733604931866,True,False,0.4182449175549745,0.5425505344474394,4,1
exteroceptive,0.4360480696542506,True,False,0.4992550853120701,0.45789681516541114,4,1
exteroceptive,0.47965287661967565,False,True,0.6023623281153961,0.47605647455220945,4,1
exteroceptive,0.4316875889577081,False,False,0.3968263221798566,0.4566421227740067,4,1
exteroceptive,0.4748563478534789,False,True,0.40267963847281407,0.39463893874119005,4,1
exteroceptive,0.427370713068131,False,False,0.4446931767643724,0.3730593777360068,4,1
exteroceptive,0.47010778437494416,False,True,0.551400537771203,0.568603780612907,4,1
exteroceptive,0.42309700593744975,False,False,0.32858717891913686,0.46328029454106034,4,1
exteroceptive,0.46540670653119476,True,True,0.5972183301295306,0.4358005050147524,4,1
exteroceptive,0.4188660358780753,True,False,0.5578214118098878,0.5555238133755149,4,1
exteroceptive,0.46075263946588285,False,True,0.6090627065190019,0.41113005650318735,4,1
exteroceptive,0.41467737551929457,False,True,0.6749135816187384,0.3420128530779767,4,1
exteroceptive,0.3732096379673651,True,True,0.5831617728319642,0.5488229554939736,4,1
exteroceptive,0.3358886741706286,True,False,0.5689073022184336,0.23539981445799243,4,1
exteroceptive,0.3694775415876915,False,False,0.6899831726678747,0.5094414293831243,4,1
exteroceptive,0.4064252957464607,False,False,0.45204659891316673,0.46546242604540755,4,1
exteroceptive,0.4470678253211068,True,False,0.4841196437147737,0.41562004709563644,4,1
exteroceptive,0.4917746078532175,True,False,0.5962340702683343,0.26341337781891744,4,1
exteroceptive,0.5409520686385393,False,True,0.5851281371875611,0.5926296864426902,4,1
exteroceptive,0.48685686177468535,True,True,0.4850291772786344,0.4054942747713065,4,1
exteroceptive,0.4381711755972168,True,True,0.3807582531492072,0.47630791666537126,4,1
exteroceptive,0.3943540580374951,True,False,0.7273503630754118,0.20129718638058852,4,1
exteroceptive,0.43378946384124467,True,True,0.5048192406299811,0.3801150604652385,4,1
exteroceptive,0.3904105174571202,False,False,0.5071076033074725,0.46019429185604965,4,1
exteroceptive,0.42945156920283223,True,False,0.5591133350930283,0.6053966102429381,4,1
exteroceptive,0.4723967261231155,False,False,0.5475316086241664,0.46154596974688994,4,1
exteroceptive,0.5196363987354271,True,False,0.419167187225578,0.3910243692212408,4,1
exteroceptive,0.5716000386089699,False,False,0.6312016963223425,0.6846177154351297,4,1
exteroceptive,0.6287600424698669,True,False,0.4549076020699367,0.7548261096114507,4,1
exteroceptive,0.6916360467168537,False,True,0.5962362770262785,0.7428556637079863,4,1
exteroceptive,0.6224724420451684,False,True,0.3436031015701651,0.5723230154856609,4,1
exteroceptive,0.5602251978406516,False,True,0.5055883622320946,0.7335297864614196,4,1
exteroceptive,0.5042026780565865,False,False,0.3969026716862041,0.6840671257758998,4,1
exteroceptive,0.5546229458622451,False,True,0.5893523377456062,0.3937375091510307,4,1
control,0.5250616536698341,False,False,0.3587469469354575,0.43582216875822527,4,1
control,0.5775678190368176,True,True,0.6021157342146298,0.4928438301937676,4,1
control,0.5198110371331359,True,True,0.4971964503443706,0.394286845717581,4,1
control,0.4678299334198223,False,True,0.6244924991188971,0.4795676792248913,4,1
control,0.4210469400778401,True,True,0.4704376073844056,0.5332934319976823,4,1
control,0.3789422460700561,False,True,0.2715782548897983,0.5828345176093086,4,1
control,0.3410480214630505,False,True,0.4638929989388951,0.25823874057112517,4,1
control,0.30694321931674545,False,True,0.557211846460832,0.3660963104167089,4,1
control,0.2762488973850709,False,False,0.5552439160517118,0.36093004573199544,4,1
control,0.30387378712357804,True,True,0.6406592093269382,0.3926373291866815,4,1
control,0.27348640841122024,True,True,0.4363266982965862,0.5209243454159065,4,1
control,0.24613776757009823,False,False,0.4142588643199649,0.497901528482437,4,1
control,0.2707515443271081,True,False,0.5756024406816923,0.4229963536104491,4,1
control,0.29782669875981893,True,False,0.4174344973533341,0.43358292939503223,4,1
control,0.32760936863580087,True,False,0.4937939650768106,0.31882148493850493,4,1
control,0.360370305499381,False,False,0.6142996219486802,0.3428558750342774,4,1
control,0.3964073360493191,True,False,0.4446392256692322,0.3923343470305752,4,1
control,0.436048069654251,True,False,0.5375848113007624,0.33483129519917654,4,1
control,0.47965287661967615,False,False,0.5736625002404869,0.4783202590250378,4,1
control,0.5276181642816438,True,True,0.6572011536076878,0.47437937319252643,4,1
control,0.4748563478534794,False,True,0.5182568638464785,0.5060611505688736,4,1
control,0.42737071306813146,False,True,0.5673484226409619,0.5465424848095458,4,1
control,0.3846336417613183,True,True,0.48309008556972854,0.43133601288931783,4,1
control,0.3461702775851865,False,False,0.5311931716824142,0.42112512409667396,4,1
control,0.38078730534370514,False,True,0.36918121615209476,0.4419271959578764,4,1
control,0.34270857480933464,True,False,0.49102980356685383,0.5689402474138865,4,1
control,0.37697943229026815,True,False,0.6435361971299827,0.5253325327201647,4,1
control,0.414677375519295,True,False,0.37492288129020424,0.40523725846941566,4,1
control,0.4561451130712246,True,False,0.6604987967522541,0.38936818698594994,4,1
control,0.5017596243783471,False,True,0.4511309229783757,0.6859682895517943,4,1
control,0.4515836619405124,False,False,0.46130903374489224,0.467195063753839,4,1
control,0.4967420281345637,False,False,0.5088991551614805,0.24786014418165753,4,1
control,0.54641623094802,False,False,0.3607480140291285,0.3040592433600402,4,1
control,0.6010578540428221,False,False,0.5079164821099272,0.5412071983446117,4,1
control,0.6611636394471043,False,False,0.4141708123796148,0.6605568469796942,4,1
control,0.7272800033918149,True,False,0.39364799828862473,0.5872722524446967,4,1
control,0.8000080037309965,True,False,0.5389805942334787,0.6169034384469617,4,1
control,0.8800088041040962,False,False,0.35025818714246093,0.7477447497868702,4,1
control,0.9680096845145059,False,True,0.5748579534174825,0.4786838783140729,4,1
control,0.8712087160630553,True,True,0.5727748499864089,0.8930825971374038,4,1
control,0.7840878444567497,False,False,0.6843128834668999,0.6486798690039415,4,1
control,0.8624966289024247,False,True,0.556705241889469,0.825367109491032,4,1
control,0.7762469660121822,False,True,0.560784176941979,0.35108351975359703,4,1
control,0.6986222694109641,False,True,0.4762909405495855,0.6017822797923914,4,1
control,0.6287600424698677,True,True,0.7450858641195675,0.5624876867399253,4,1
control,0.5658840382228809,True,True,0.6636143007594184,0.4720938621918453,4,1
control,0.5092956344005929,True,True,0.5075504549580641,0.47777203961946213,4,1
control,0.4583660709605336,True,True,0.6967856739086619,0.5879679211493969,4,1
control,0.41252946386448025,False,True,0.6137982689295087,0.3931176439317925,4,1
control,0.37127651747803225,True,True,0.6129632841823057,0.353154371744529,4,1
interoceptive,0.7456597383259087,False,True,0.4770359862164053,0.7774905236237355,5,1
interoceptive,0.6710937644933178,False,False,0.48339485132143006,0.6383034378922626,5,1
interoceptive,0.7382031409426496,False,True,0.507766671186376,0.804132161329398,5,1
interoceptive,0.6643828268483847,True,False,0.5652425234157961,0.46895597284707335,5,1
interoceptive,0.7308211095332232,False,False,0.4630371597649563,0.6033584016372816,5,1
interoceptive,0.8039032204865456,True,True,0.5661190569180823,0.8531410606163891,5,1
interoceptive,0.723512898437891,False,False,0.5857325954822045,0.8722791316695727,5,1
interoceptive,0.7958641882816802,False,True,0.5306952530265262,0.9268135439591079,5,1
interoceptive,0.7162777694535122,True,True,0.5870240418823391,0.796977932771676,5,1
interoceptive,0.644649992508161,True,True,0.36824673706460775,0.7126991178709924,5,1
interoceptive,0.580184993257345,True,True,0.46256290952370127,0.6902195955794244,5,1
interoceptive,0.5221664939316105,True,True,0.590721521143506,0.573589301984204,5,1
interoceptive,0.46994984453844946,False,True,0.5546793420271682,0.5001276535593971,5,1
interoceptive,0.42295486008460453,True,True,0.4079259095510985,0.22672762767453836,5,1
interoceptive,0.3806593740761441,False,False,0.5637234293306801,0.11071932342216795,5,1
interoceptive,0.4187253114837585,False,False,0.5677157573055766,0.37865572631465194,5,1
interoceptive,0.46059784263213444,False,False,0.6144322814043368,0.25048753719252986,5,1
interoceptive,0.5066576268953479,True,False,0.4626756453393162,0.44102714782123686,5,1
interoceptive,0.5573233895848827,True,True,0.5801658592889799,0.6311353802903144,5,1
interoceptive,0.5015910506263944,True,True,0.7121499604020317,0.47330755361136456,5,1
interoceptive,0.451431945563755,True,True,0.5519877366092869,0.401450880896921,5,1
interoceptive,0.4062887510073795,False,False,0.4896254521429821,0.4132671671051089,5,1
interoceptive,0.44691762610811747,False,True,0.5170320475737259,0.4999040730452231,5,1
interoceptive,0.4022258634973057,False,False,0.4916773747929874,0.5275427198500269,5,1
interoceptive,0.4424484498470363,False,False,0.38779407336871363,0.31972061315586375,5,1
interoceptive,0.48669329483173995,True,False,0.49870010451486163,0.6885318060325666,5,1
interoceptive,0.535362624314914,False,False,0.42452638680341576,0.4350815736273044,5,1
interoceptive,0.5888988867464054,True,False,0.29494458615043806,0.6172835923760296,5,1
interoceptive,0.6477887754210461,False,True,0.33364135636592196,0.5789325463348536,5,1
interoceptive,0.5830098978789415,True,True,0.3456803348524359,0.5847394391887618,5,1
interoceptive,0.5247089080910474,False,True,0.6018404950171338,0.6006057592551153,5,1
interoceptive,0.4722380172819427,True,False,0.6903034484594928,0.3598504637125372,5,1
interoceptive,0.519461819010137,False,True,0.4043719013264523,0.6950093325366822,5,1
interoceptive,0.4675156371091233,True,True,0.3748304970922291,0.5621942853459516,5,1
interoceptive,0.420764073398211,True,True,0.4579165180521762,0.5318712522756018,5,1
interoceptive,0.3786876660583899,False,False,0.4471224249475227,0.3219621740287467,5,1
interoceptive,0.4165564326642289,True,False,0.5798634228462454,0.21653907758464208,5,1
interoceptive,0.45821207593065183,False,False,0.4117231221711694,0.4168696158850523,5,1
interoceptive,0.504033283523717,False,True,0.5386574666972315,0.6057800819090622,5,1
interoceptive,0.4536299551713453,False,True,0.47660236401180495,0.6066391834880154,5,1
interoceptive,0.4082669596542108,False,True,0.5374202003456001,0.4105240293539635,5,1
interoceptive,0.36744026368878974,False,True,0.49057220326807655,0.4071547231896398,5,1
interoceptive,0.33069623731991077,True,False,0.5581120280447618,0.3930740847294694,5,1
interoceptive,0.3637658610519019,True,True,0.49106881294697063,0.37833016562615984,5,1
interoceptive,0.3273892749467117,False,False,0.5437009257907675,0.1444746914039603,5,1
interoceptive,0.36012820244138294,True,True,0.3099328497721798,0.3655565366023595,5,1
interoceptive,0.3241153821972447,False,False,0.44981121975479776,0.3147030523587531,5,1
interoceptive,0.35652692041696915,False,True,0.4890152378452019,0.4055066954591978,5,1
interoceptive,0.32087422837527224,False,False,0.3993500576480615,0.27368839420017455,5,1
interoceptive,0.3529616512127995,True,False,0.5117990865639537,0.46510634460181743,5,1
exteroceptive,0.49916065127602066,True,False,0.6473589407250285,0.4913410434777565,5,1
exteroceptive,0.5490767164036228,False,True,0.596162123157119,0.5250135404887016,5,1
exteroceptive,0.4941690447632605,False,True,0.5399412029533301,0.45454303498230775,5,1
exteroceptive,0.4447521402869345,False,True,0.5169513033133581,0.5458612433873062,5,1
exteroceptive,0.4002769262582411,True,False,0.5308208297186747,0.4242178793872153,5,1
exteroceptive,0.4403046188840652,False,True,0.2502741260560315,0.5758716200571931,5,1
exteroceptive,0.39627415699565866,False,True,0.4903795116537871,0.47651471505684345,5,1
exteroceptive,0.3566467412960928,False,True,0.5434572817117028,0.4514840900706735,5,1
exteroceptive,0.32098206716648353,False,True,0.6005577940241175,0.38747703307534176,5,1
exteroceptive,0.28888386044983516,False,False,0.6009132509434645,0.3520088584820204,5,1
exteroceptive,0.3177722464948187,True,False,0.45845585205338757,0.292010476965631,5,1
exteroceptive,0.3495494711443006,True,True,0.42997924908860236,0.2580449377287758,5,1
exteroceptive,0.3145945240298706,False,False,0.3190389536983068,0.3445171895477167,5,1
exteroceptive,0.3460539764328577,True,False,0.341522006556421,0.2765366379916108,5,1
exteroceptive,0.3806593740761435,True,False,0.28821616028064484,0.3811611867982428,5,1
exteroceptive,0.41872531148375786,False,False,0.4416160217557708,0.4969251020968303,5,1
exteroceptive,0.46059784263213366,False,False,0.5786187550731144,0.30051713036166017,5,1
exteroceptive,0.5066576268953471,False,True,0.35017713347894924,0.5536787729087329,5,1
exteroceptive,0.4559918642058124,True,False,0.49624628826728534,0.5174204927499598,5,1
exteroceptive,0.5015910506263936,False,True,0.5320381814271923,0.396485354873329,5,1
exteroceptive,0.45143194556375427,True,False,0.5905702427708418,0.44179906382208267,5,1
exteroceptive,0.4965751401201297,False,True,0.41211566256956605,0.5105510038598816,5,1
exteroceptive,0.44691762610811675,False,False,0.42388689830198883,0.467377291351156,5,1
exteroceptive,0.49160938871892845,True,True,0.4774771507934384,0.2940180560828706,5,1
exteroceptive,0.44244844984703563,True,False,0.30604050791165516,0.373658426320878,5,1
exteroceptive,0.48669329483173923,False,True,0.36239467656576085,0.49646632559321086,5,1
exteroceptive,0.4380239653485653,True,False,0.6441514422800803,0.32128863414024833,5,1
exteroceptive,0.48182636188342187,True,False,0.26841421942864996,0.5072670785336082,5,1
exteroceptive,0.530008998071764,False,False,0.2617498177639689,0.34118292470564116,5,1
exteroceptive,0.5830098978789405,True,False,0.6696376048669367,0.8207582290139176,5,1
exteroceptive,0.6413108876668346,True,False,0.3486779539400073,0.617516187684982,5,1
exteroceptive,0.7054419764335181,True,True,0.5210102013440532,0.5979882747322113,5,1
exteroceptive,0.6348977787901663,True,True,0.5314884856937053,0.6557672132902114,5,1
exteroceptive,0.5714080009111496,False,False,0.6629364432074093,0.5856293726278441,5,1
exteroceptive,0.6285488010022646,False,True,0.5509410598954224,0.7260910479776213,5,1
exteroceptive,0.5656939209020382,False,True,0.5963617860390894,0.9123266894331477,5,1
exteroceptive,0.5091245288118343,False,True,0.6568434902110231,0.4454599564124119,5,1
exteroceptive,0.45821207593065094,True,True,0.5973906609277259,0.38247748261783554,5,1
exteroceptive,0.41239086833758587,False,False,0.516439891857604,0.5054127255881883,5,1
exteroceptive,0.45362995517134447,False,False,0.5579967032400838,0.6550313779081854,5,1
exteroceptive,0.49899295068847893,True,True,0.28332713111049135,0.6754949767844377,5,1
exteroceptive,0.44909365561963105,False,False,0.5577075884765283,0.5866610895798785,5,1
exteroceptive,0.49400302118159417,True,True,0.37408566145084066,0.41750948916354075,5,1
exteroceptive,0.44460271906343474,False,False,0.5160515447544365,0.41179739468658844,5,1
exteroceptive,0.48906299096977823,True,True,0.39066514536230895,0.651649675648073,5,1
exteroceptive,0.44015669187280043,True,False,0.4609751421641885,0.5638582608936801,5,1
exteroceptive,0.4841723610600805,True,False,0.5717506300795723,0.49262637389040814,5,1
exteroceptive,0.5325895971660886,False,True,0.4363692277403641,0.8058666994008876,5,1
exteroceptive,0.47933063744947974,False,False,0.6930536213609755,0.3816309428489996,5,1
exteroceptive,0.5272637011944278,True,False,0.5778983162460546,0.49612091728692737,5,1
control,0.33414886573022906,True,False,0.44038977066819035,0.46698013995151866,5,1
control,0.367563752303252,True,True,0.1575695214763319,0.6799770856768556,5,1
control,0.3308073770729268,False,False,0.4583695170554984,0.3848998125778366,5,1
control,0.3638881147802195,True,False,0.6386219785410613,0.3020825399480181,5,1
control,0.40027692625824146,True,True,0.31955097444072383,0.529736818384964,5,1
control,0.36024923363241734,False,False,0.4935169700927582,0.32147968502110347,5,1
control,0.3962741569956591,True,False,0.5667798686679719,0.22529228475349267,5,1
control,0.43590157269522506,False,True,0.5824457694709616,0.6173054941145781,5,1
control,0.3923114154257026,True,False,0.5320237926020743,0.4005571308477416,5,1
control,0.4315425569682729,True,False,0.5968602154631846,0.4390343886007818,5,1
control,0.4746968126651002,True,True,0.5939773726442849,0.24899851796179617,5,1
control,0.4272271313985902,False,False,0.5634559400784437,0.6790866207508633,5,1
control,0.46994984453844924,True,False,0.5992138190284764,0.6027142113873889,5,1
control,0.5169448289922942,True,True,0.471860119101233,0.41701004637418515,5,1
control,0.4652503460930648,False,False,0.6519856404161428,0.4508951768727045,5,1
control,0.5117753807023714,False,False,0.5671917683671963,0.5022866157735955,5,1
control,0.5629529187726086,False,True,0.36088601072567666,0.5943882896877791,5,1
control,0.5066576268953478,False,False,0.6479407850893785,0.5188887228142423,5,1
control,0.5573233895848826,True,True,0.48361523718169547,0.6876526483307733,5,1
control,0.5015910506263943,True,True,0.5802052289533668,0.45445069122294646,5,1
control,0.4514319455637549,False,True,0.6490531961672613,0.5887103977151016,5,1
control,0.4062887510073794,False,False,0.3183204164418408,0.4225913627427346,5,1
control,0.44691762610811736,False,True,0.5126029227400352,0.6586233355904676,5,1
control,0.40222586349730566,False,True,0.4460748650597454,0.541794508505997,5,1
control,0.3620032771475751,True,True,0.6108180372462881,0.4284332697213401,5,1
control,0.32580294943281757,False,False,0.6029048123457348,0.20344379437041848,5,1
control,0.35838324437609936,False,False,0.5096325298777937,0.2553387620921983,5,1
control,0.39422156881370934,False,True,0.6089121784640914,0.568349263020744,5,1
control,0.35479941193233844,False,False,0.34561644786671136,0.3496607600992052,5,1
control,0.3902793531255723,True,True,0.426257903325104,0.3713967332585551,5,1
control,0.3512514178130151,False,False,0.6967363031769008,0.3270118292160824,5,1
control,0.38637655959431666,False,True,0.3567827101526217,0.6825245768582469,5,1
control,0.347738903634885,False,True,0.5692081489274724,0.281777650076801,5,1
control,0.31296501327139653,True,True,0.5098568958986321,0.3636444170366957,5,1
control,0.2816685119442569,True,False,0.32030311045641285,0.34378672003081656,5,1
control,0.3098353631386826,False,False,0.6358247582520836,0.523818431878585,5,1
control,0.3408188994525509,True,False,0.43238119986236345,0.21224595775278696,5,1
control,0.374900789397806,False,True,0.4353588238768829,0.36634644161185465,5,1
control,0.33741071045802545,True,True,0.6299582446389079,0.41477959377205614,5,1
control,0.3036696394122229,False,False,0.60828019893681,0.6356768544650864,5,1
control,0.3340366033534452,False,True,0.4370537076633214,0.40203672954301906,5,1
control,0.3006329430181007,False,False,0.45042933165228705,0.3422856792378998,5,1
control,0.33069623731991077,False,False,0.5677054124083631,0.5004061221963761,5,1
control,0.3637658610519019,True,True,0.5055156389555984,0.5076177470821477,5,1
control,0.3273892749467117,True,True,0.5032371461828199,0.342842886086396,5,1
control,0.29465034745204055,True,False,0.6441572118154562,0.5099189467883096,5,1
control,0.3241153821972446,False,False,0.5462499758669203,0.35410650141171623,5,1
control,0.3565269204169691,False,True,0.3150613800411895,0.43383477549009125,5,1
control,0.3208742283752722,False,False,0.5381858796367323,0.22373751026430652,5,1
control,0.35296165121279943,True,True,0.6729878094135192,0.42010625741090407,5,1
control,0.3176654860915195,False,False,0.6277006753832066,0.3160152579941427,6,1
control,0.34943203470067147,False,True,0.6526706105199974,0.5043494802732721,6,1
control,0.31448883123060434,True,False,0.25773757909520084,0.43942237209379653,6,1
control,0.3459377143536648,False,False,0.5713961616906629,0.4350613089356025,6,1
control,0.38053148578903134,False,False,0.3652603182590188,0.37636313492644685,6,1
control,0.4185846343679345,False,True,0.5214615561999214,0.362769794497778,6,1
control,0.3767261709311411,True,True,0.5425590852143913,0.2188041077267243,6,1
control,0.339053553838027,True,False,0.418892372179364,0.3503869122207881,6,1
control,0.3729589092218297,True,False,0.4579836792204017,0.5081623796280107,6,1
control,0.4102548001440127,False,False,0.3524374025829431,0.32517347950232145,6,1
control,0.45128028015841404,True,False,0.5500612571563176,0.37712862057161356,6,1
control,0.49640830817425546,True,False,0.6887073677930672,0.4088549307357761,6,1
control,0.5460491389916811,True,True,0.6846017007386141,0.44726338465474147,6,1
control,0.49144422509251295,True,True,0.5095141270738842,0.6087258162620606,6,1
control,0.4422998025832617,False,False,0.4629324209738832,0.497600788493651,6,1
control,0.4865297828415879,True,True,0.5586118142419426,0.6664506117751666,6,1
control,0.4378768045574291,False,False,0.611045937283518,0.5658161326899906,6,1
control,0.48166448501317205,False,True,0.5967756277773957,0.47393449709797963,6,1
control,0.43349803651185487,False,False,0.4607358988248601,0.4009630899105445,6,1
control,0.4768478401630404,True,False,0.49208030193096697,0.5199360493856684,6,1
control,0.5245326241793444,True,False,0.3869055054116186,0.5929569858349022,6,1
control,0.5769858865972789,True,False,0.6833015332891804,0.596667728263175,6,1
control,0.6346844752570069,False,False,0.4510907410774283,0.615290387850418,6,1
control,0.6981529227827077,True,True,0.49644163564205435,0.6912729139583645,6,1
control,0.6283376305044369,True,False,0.3989471128003483,0.5755041614900847,6,1
control,0.6911713935548807,False,True,0.4554489327225416,0.4309773465616076,6,1
control,0.6220542541993926,True,True,0.6952383518845121,0.5338776401011057,6,1
control,0.5598488287794534,True,False,0.5879193209770026,0.5573202307966629,6,1
control,0.6158337116573988,True,True,0.5610875360775263,0.5163185617522773,6,1
control,0.5542503404916589,False,True,0.5456701307602211,0.6064930548587755,6,1
control,0.498825306442493,False,False,0.5339930955019827,0.41971081884506967,6,1
control,0.5487078370867423,True,False,0.44132678126513386,0.4373109253456626,6,1
control,0.6035786207954166,False,False,0.6309043470078327,0.6915670980117176,6,1
control,0.6639364828749583,True,False,0.5318650378248698,0.5733523828879272,6,1
control,0.7303301311624543,False,False,0.3963434628784333,0.5481993485648258,6,1
control,0.8033631442786997,False,True,0.5369282527870736,0.7013609175887109,6,1
control,0.7230268298508298,False,False,0.51488304186601,0.6717325680554027,6,1
control,0.7953295128359128,True,True,0.5478672949282591,0.5796576425208454,6,1
control,0.7157965615523215,True,True,0.5214438528248556,0.5817525768180849,6,1
control,0.6442169053970894,False,True,0.5387685021627876,0.5616024980268284,6,1
control,0.5797952148573805,True,False,0.3724071572534421,0.4947995224650793,6,1
control,0.6377747363431187,False,True,0.6081834951981885,0.532529021262644,6,1
control,0.5739972627088068,False,False,0.47911122998233346,0.3964584287970129,6,1
control,0.6313969889796875,False,False,0.4091667051955693,0.587589132815378,6,1
control,0.6945366878776563,True,False,0.6323499183947084,0.6579144412317964,6,1
control,0.763990356665422,False,False,0.6388021846787092,0.5808452148505716,6,1
control,0.8403893923319643,False,True,0.5641340822419217,0.8879061324446915,6,1
control,0.7563504530987679,False,True,0.524486499106959,0.6138880534711395,6,1
control,0.6807154077888912,False,True,0.8272298424380139,0.4186097446258899,6,1
control,0.6126438670100021,False,True,0.28791267081034927,0.5886098140078767,6,1
interoceptive,0.38825781633407946,False,True,0.4668517195724164,0.3055210487452271,6,1
interoceptive,0.3494320347006715,True,False,0.46444339741435525,0.13551411681175754,6,1
interoceptive,0.3843752381707387,False,False,0.37883034756760325,0.3315962421038516,6,1
interoceptive,0.4228127619878126,False,True,0.36425410432847194,0.49679396311726254,6,1
interoceptive,0.38053148578903134,True,False,0.4892463141309857,0.24954916417052636,6,1
interoceptive,0.4185846343679345,True,False,0.44051155722481633,0.22538130014543162,6,1
interoceptive,0.46044309780472803,True,True,0.48723862668999046,0.603087523956311,6,1
interoceptive,0.4143987880242552,True,False,0.44353602306942286,0.3495413714469456,6,1
interoceptive,0.4558386668266808,True,True,0.5743081585214689,0.5229381647589387,6,1
interoceptive,0.4102548001440127,True,True,0.4569763703673223,0.2650670110177806,6,1
interoceptive,0.36922932012961146,True,True,0.39576062462919637,0.3834682940179209,6,1
interoceptive,0.3323063881166503,False,False,0.5388548765618085,0.15331657349581604,6,1
interoceptive,0.36553702692831536,False,False,0.40048485529654737,0.32289094305917393,6,1
interoceptive,0.40209072962114695,False,False,0.3745142626234426,0.42567977799039547,6,1
interoceptive,0.4422998025832617,False,False,0.36732968261885485,0.4013607898598529,6,1
interoceptive,0.4865297828415879,True,False,0.5053328831917978,0.37856377817071957,6,1
interoceptive,0.5351827611257467,True,True,0.22674560002597477,0.7089017304662055,6,1
interoceptive,0.48166448501317205,True,False,0.5445044553020488,0.5167805993049043,6,1
interoceptive,0.5298309335144893,False,False,0.6488018528031678,0.6226636288741926,6,1
interoceptive,0.5828140268659383,False,True,0.44892550122995367,0.56402553295831,6,1
interoceptive,0.5245326241793445,False,True,0.6899145057194228,0.5171481004776814,6,1
interoceptive,0.4720793617614101,True,False,0.46619958876587003,0.3931367060783041,6,1
interoceptive,0.5192872979375511,True,False,0.41232894081755767,0.39957529486035676,6,1
interoceptive,0.5712160277313063,False,False,0.31639215272245985,0.6004712254744032,6,1
interoceptive,0.628337630504437,False,True,0.5410237167926553,0.6544630485894869,6,1
interoceptive,0.5655038674539934,True,True,0.5117463827818977,0.647744240028618,6,1
interoceptive,0.508953480708594,True,False,0.5753030992176431,0.3846087991878411,6,1
interoceptive,0.5598488287794535,True,True,0.42890174569107326,0.6493021600900348,6,1
interoceptive,0.5038639459015082,True,False,0.5631760993622269,0.5909968175141547,6,1
interoceptive,0.554250340491659,True,True,0.6030263225976218,0.5477974254748498,6,1
interoceptive,0.4988253064424931,False,False,0.4705446636184719,0.41026768411204895,6,1
interoceptive,0.5487078370867424,True,True,0.4461133239301337,0.7124058382621664,6,1
interoceptive,0.4938370533780682,True,False,0.499527470686758,0.5662998404170456,6,1
interoceptive,0.543220758715875,True,True,0.6174767994253169,0.69025814983712,6,1
interoceptive,0.48889868284428756,True,True,0.528681493874365,0.545360906592265,6,1
interoceptive,0.4400088145598588,False,True,0.5031420957046301,0.4757931577560193,6,1
interoceptive,0.39600793310387294,True,False,0.4250236706915233,0.43877643392180843,6,1
interoceptive,0.4356087264142603,True,False,0.5405696304282629,0.3349475541797942,6,1
interoceptive,0.47916959905568635,False,False,0.5314679331380217,0.38066902177729367,6,1
interoceptive,0.527086558961255,True,False,0.6196758538412908,0.6317776048444295,6,1
interoceptive,0.5797952148573805,False,True,0.5183186900163671,0.7221397351287773,6,1
interoceptive,0.5218156933716425,False,False,0.39900453786991985,0.5504102224573849,6,1
interoceptive,0.5739972627088068,False,True,0.5621214092381279,0.6764288297709409,6,1
interoceptive,0.5165975364379262,False,False,0.36201678643545565,0.6129581694195488,6,1
interoceptive,0.5682572900817189,True,False,0.3440503565233126,0.6048819707743902,6,1
interoceptive,0.6250830190898908,False,True,0.5989931284504771,0.583892038985951,6,1
interoceptive,0.5625747171809018,True,True,0.5887070923753964,0.5071684196344091,6,1
interoceptive,0.5063172454628116,False,False,0.4720876069809381,0.6491393330002903,6,1
interoceptive,0.5569489700090928,True,True,0.11980060322890733,0.6042275471753167,6,1
interoceptive,0.5012540730081836,False,False,0.5225180695337726,0.39776694654341305,6,1
exteroceptive,0.5799900713138706,True,True,0.6279506898313099,0.7095028205229613,6,1
exteroceptive,0.5219910641824835,True,False,0.3944931661925601,0.4061718130862691,6,1
exteroceptive,0.574190170600732,False,True,0.409709455772162,0.8067589048165072,6,1
exteroceptive,0.5167711535406588,False,True,0.5434415321410774,0.8228208398888618,6,1
exteroceptive,0.46509403818659295,False,True,0.6004872243006472,0.38787992865305737,6,1
exteroceptive,0.41858463436793364,False,False,0.5435198772727267,0.5836297804912736,6,1
exteroceptive,0.46044309780472703,True,False,0.5516321513286578,0.49804373483412967,6,1
exteroceptive,0.5064874075851997,True,False,0.4345388470509466,0.6702877787831087,6,1
exteroceptive,0.5571361483437197,False,True,0.446364124729853,0.6813526447574462,6,1
exteroceptive,0.5014225335093477,False,True,0.46829126371614554,0.4676046798891149,6,1
exteroceptive,0.451280280158413,False,False,0.5801602984387303,0.47052542175696,6,1
exteroceptive,0.4964083081742543,True,False,0.6636346759682367,0.46758937052226074,6,1
exteroceptive,0.5460491389916797,True,False,0.592807060032016,0.44835065428609777,6,1
exteroceptive,0.6006540528908477,False,True,0.4858564519120994,0.5610600607093359,6,1
exteroceptive,0.540588647601763,False,True,0.6486963574423981,0.591382458936743,6,1
exteroceptive,0.48652978284158666,True,True,0.45561820449057755,0.4734680131533163,6,1
exteroceptive,0.437876804557428,False,False,0.4181479508213619,0.34584721029607873,6,1
exteroceptive,0.48166448501317083,False,True,0.4473266074819974,0.48514639030757994,6,1
exteroceptive,0.43349803651185376,False,True,0.39115658984855206,0.47184071221474777,6,1
exteroceptive,0.3901482328606684,False,True,0.5096177989480921,0.5370477983518984,6,1
exteroceptive,0.3511334095746016,False,False,0.6148388115609453,0.4240612517962097,6,1
exteroceptive,0.3862467505320618,True,False,0.5429424320017169,0.2793276873738048,6,1
exteroceptive,0.424871425585268,False,True,0.4860114783779936,0.3876492590577374,6,1
exteroceptive,0.3823842830267412,False,False,0.48965163072907525,0.4190885306187911,6,1
exteroceptive,0.42062271132941537,True,True,0.4824022562841782,0.42021119570505483,6,1
exteroceptive,0.37856044019647384,False,False,0.3951924796776641,0.3002576145251732,6,1
exteroceptive,0.41641648421612126,True,True,0.4317578850557697,0.449314544544786,6,1
exteroceptive,0.37477483579450915,False,False,0.5609986802282585,0.45004096718097264,6,1
exteroceptive,0.4122523193739601,True,True,0.35746040111433425,0.4924191212261829,6,1
exteroceptive,0.3710270874365641,True,False,0.447847769581411,0.2948031775656461,6,1
exteroceptive,0.40812979618022055,False,False,0.5040544703530869,0.3009881814893802,6,1
exteroceptive,0.44894277579824265,False,False,0.6581269887551033,0.4693075107873053,6,1
exteroceptive,0.49383705337806694,True,False,0.5545257206497373,0.3052284099237703,6,1
exteroceptive,0.5432207587158737,False,True,0.5539330519619482,0.5074542541159083,6,1
exteroceptive,0.48889868284428634,True,True,0.5815389304252714,0.5207915335288338,6,1
exteroceptive,0.4400088145598577,True,True,0.3537149783697148,0.5477766363100904,6,1
exteroceptive,0.39600793310387195,False,False,0.46617762277682334,0.3516132797818722,6,1
exteroceptive,0.4356087264142592,False,False,0.6016817552163023,0.5164942798936791,6,1
exteroceptive,0.4791695990556851,True,True,0.5659674598722396,0.45304734389856627,6,1
exteroceptive,0.43125263915011663,True,False,0.4632252421518085,0.4382422584308746,6,1
exteroceptive,0.47437790306512834,True,True,0.4473707288030327,0.3216879459549826,6,1
exteroceptive,0.4269401127586155,True,True,0.5135343981450408,0.3374836511870421,6,1
exteroceptive,0.38424610148275395,False,False,0.5083369001933454,0.37225741827342607,6,1
exteroceptive,0.42267071163102937,False,False,0.5066111554823544,0.6962460986012773,6,1
exteroceptive,0.46493778279413234,True,False,0.3438191540766742,0.3736502674629594,6,1
exteroceptive,0.5114315610735456,False,False,0.529908726014904,0.4996184118329155,6,1
exteroceptive,0.5625747171809002,True,True,0.609237463648349,0.670904490752001,6,1
exteroceptive,0.5063172454628102,False,False,0.38381425389599055,0.4498964748276719,6,1
exteroceptive,0.5569489700090913,False,False,0.4420075780691929,0.671405139098576,6,1
exteroceptive,0.6126438670100004,True,True,0.45725051741985556,0.7663406330501731,6,1
exteroceptive,0.5513794803090004,True,True,0.5504601911089303,0.6431306456881904,7,1
exteroceptive,0.49624153227810036,False,False,0.3265263539057453,0.3757715943612194,7,1
exteroceptive,0.5458656855059104,False,False,0.44342517419880007,0.6665854382633205,7,1
exteroceptive,0.6004522540565015,False,True,0.47550902865463546,0.37085398912118783,7,1
exteroceptive,0.5404070286508513,True,False,0.7321122865192882,0.5909773654061545,7,1
exteroceptive,0.5944477315159366,False,False,0.5172790816826812,0.5921858282875531,7,1
exteroceptive,0.6538925046675302,True,True,0.4899602663352892,0.6551021685992164,7,1
exteroceptive,0.5885032542007772,False,False,0.5578338425560617,0.4247245788101083,7,1
exteroceptive,0.6473535796208549,True,False,0.3914445603196637,0.6821084386120007,7,1
exteroceptive,0.7120889375829405,True,True,0.5341204127947576,0.6632995176350704,7,1
exteroceptive,0.6408800438246465,False,False,0.47199657605196443,0.44261021137570267,7,1
exteroceptive,0.7049680482071112,True,False,0.4817841649589519,0.6348074159390464,7,1
exteroceptive,0.7754648530278224,False,True,0.4249474011237431,0.6286167436150955,7,1
exteroceptive,0.6979183677250402,True,False,0.5212464817444555,0.7360719657981443,7,1
exteroceptive,0.7677102044975443,False,True,0.3287892690659086,0.5598259129015334,7,1
exteroceptive,0.69093918404779,True,True,0.5940439658086593,0.6479810644338848,7,1
exteroceptive,0.621845265643011,True,True,0.6224597648087687,0.4995811148947155,7,1
exteroceptive,0.55966073907871,False,True,0.5947450816479165,0.7155455405024935,7,1
exteroceptive,0.5036946651708389,True,True,0.4604267819195115,0.6444681595444908,7,1
exteroceptive,0.45332519865375503,False,False,0.5466500205603433,0.4320957130694216,7,1
exteroceptive,0.4986577185191306,True,False,0.4056533676299875,0.5595711233851559,7,1
exteroceptive,0.5485234903710438,True,False,0.3986291128142395,0.56410188741807,7,1
exteroceptive,0.6033758394081482,True,True,0.46928037037980747,0.7862667719381824,7,1
exteroceptive,0.5430382554673334,True,False,0.4180603882064165,0.5247774064170321,7,1
exteroceptive,0.5973420810140668,True,True,0.5055259048447236,0.6798147291759181,7,1
exteroceptive,0.5376078729126602,False,False,0.491737670598045,0.6414040594536013,7,1
exteroceptive,0.5913686602039263,True,False,0.6534116425054426,0.5559457067553379,7,1
exteroceptive,0.650505526224319,True,True,0.4201001028375537,0.5928451186372148,7,1
exteroceptive,0.5854549736018871,False,True,0.4055866826574383,0.41438006994683585,7,1
exteroceptive,0.5269094762416985,False,False,0.7589761262643462,0.5137438707282629,7,1
exteroceptive,0.5796004238658684,False,True,0.40108692118642686,0.5453390537017997,7,1
exteroceptive,0.5216403814792816,True,False,0.5563973698829086,0.5522579432202586,7,1
exteroceptive,0.5738044196272098,False,False,0.5290770411129448,0.6495994489204355,7,1
exteroceptive,0.6311848615899309,True,True,0.38766927129217243,0.5108855905380907,7,1
exteroceptive,0.5680663754309379,False,True,0.5864748641956274,0.45138206326942765,7,1
exteroceptive,0.5112597378878441,False,False,0.42153726649858264,0.5058007664251377,7,1
exteroceptive,0.5623857116766285,True,False,0.5765151984750481,0.5931378861535215,7,1
exteroceptive,0.6186242828442915,True,False,0.31971782464576926,0.5912781162583416,7,1
exteroceptive,0.6804867111287207,False,True,0.39436631062648536,0.7551788142497431,7,1
exteroceptive,0.6124380400158487,True,True,0.49332036608778357,0.723078792521884,7,1
exteroceptive,0.5511942360142639,False,False,0.5366660286183289,0.530509128219707,7,1
exteroceptive,0.6063136596156903,True,True,0.4992328262084644,0.23665618984847353,7,1
exteroceptive,0.5456822936541212,True,True,0.3115833505499844,0.7302782243355478,7,1
exteroceptive,0.49111406428870913,True,True,0.3608102478667508,0.48116457011347835,7,1
exteroceptive,0.4420026578598382,True,True,0.5219562489506175,0.3839207447599648,7,1
exteroceptive,0.3978023920738544,True,True,0.6281465805101706,0.4896157364784053,7,1
exteroceptive,0.358022152866469,False,False,0.4818512226870832,0.36205319544478093,7,1
exteroceptive,0.39382436815311594,False,False,0.7024486170116789,0.37940335398908975,7,1
exteroceptive,0.43320680496842756,True,False,0.5473557705619579,0.4334093569261594,7,1
exteroceptive,0.47652748546527035,True,True,0.30191845128631556,0.4436194719814699,7,1
control,0.5513794803090019,False,False,0.40654092053365887,0.5963131513613938,7,1
control,0.6065174283399021,False,True,0.5026632824380257,0.5185669219661058,7,1
control,0.5458656855059119,False,False,0.5242906514292275,0.5415608735877709,7,1
control,0.600452254056503,False,False,0.435369670218819,0.48098846518634425,7,1
control,0.6604974794621534,False,True,0.3683031182306152,0.5867624025835915,7,1
control,0.5944477315159381,True,False,0.3927250996740894,0.32651011072986486,7,1
control,0.653892504667532,True,False,0.5147734747249616,0.33308823664205783,7,1
control,0.7192817551342853,False,True,0.3743861331435517,0.536383010615419,7,1
control,0.6473535796208567,False,False,0.35364830643312456,0.39008801131337056,7,1
control,0.7120889375829424,False,True,0.4259648618376321,0.6838540127384057,7,1
control,0.6408800438246482,False,False,0.5483059949990329,0.5772898049224601,7,1
control,0.7049680482071131,False,True,0.3438341928581765,0.6951254083470604,7,1
control,0.6344712433864018,False,True,0.3576311337781859,0.5112941326218383,7,1
control,0.5710241190477616,True,False,0.5295766786119608,0.49810707432079004,7,1
control,0.6281265309525378,True,True,0.561310984397311,0.5239436076595894,7,1
control,0.565313877857284,False,True,0.4588643914122665,0.3912610501228434,7,1
control,0.5087824900715556,True,True,0.5723875704763791,0.43465091059182365,7,1
control,0.4579042410644001,False,False,0.6377851365966778,0.42989736789904764,7,1
control,0.5036946651708402,False,True,0.20929444402593694,0.5192952567836,7,1
control,0.45332519865375615,True,False,0.37673550544495016,0.47182119071748685,7,1
control,0.4986577185191318,False,True,0.5369665421647701,0.41283089271332396,7,1
control,0.44879194666721867,True,True,0.3606716275295644,0.589417083173469,7,1
control,0.4039127520004968,True,True,0.6859900475475053,0.23563816260483175,7,1
control,0.36352147680044716,False,False,0.6280239625132376,0.5146443866680308,7,1
control,0.3998736244804919,True,False,0.4251657687404597,0.48619311646330693,7,1
control,0.43986098692854114,True,False,0.4246587068758255,0.48586391343401086,7,1
control,0.4838470856213953,True,False,0.47519458297719386,0.3764782770423363,7,1
control,0.5322317941835348,True,True,0.5518851986258136,0.4864455627514797,7,1
control,0.47900861476518136,False,True,0.48869794158960844,0.5126498472692276,7,1
control,0.43110775328866324,False,False,0.5501587050842048,0.4957582268781933,7,1
control,0.4742185286175296,False,False,0.46105059140549826,0.673885085553771,7,1
control,0.5216403814792826,False,True,0.39803863676145335,0.37849124528519673,7,1
control,0.46947634333135435,True,True,0.6985217813194283,0.4344182388120806,7,1
control,0.4225287089982189,False,False,0.5656498165300395,0.42952419354739213,7,1
control,0.46478157989804086,True,True,0.5231326612405337,0.3797459065191059,7,1
control,0.41830342190823677,True,False,0.29699716185316527,0.2985647124897356,7,1
control,0.4601337640990605,True,True,0.5975999856818661,0.627645577399762,7,1
control,0.41412038768915443,False,False,0.4898638502972118,0.3245786428224843,7,1
control,0.4555324264580699,False,True,0.3963677173621372,0.4937991697325201,7,1
control,0.40997918381226295,False,True,0.5190791589412689,0.454228140499682,7,1
control,0.36898126543103665,False,True,0.34225074240725617,0.5074341465781906,7,1
control,0.332083138887933,True,False,0.569972998987143,0.4286354661549714,7,1
control,0.3652914527767263,True,False,0.4544715194554242,0.4147331085129073,7,1
control,0.40182059805439896,True,False,0.5789340846105613,0.3894346626998714,7,1
control,0.4420026578598389,False,True,0.7067613605091042,0.49774118145315543,7,1
control,0.397802392073855,True,True,0.5157417471297676,0.5523828922197533,7,1
control,0.3580221528664695,True,True,0.5846981424027621,0.4688127741196818,7,1
control,0.32221993757982254,False,True,0.4974544586765964,0.4540738730340683,7,1
control,0.2899979438218403,False,False,0.42711699354010707,0.3253171859109257,7,1
control,0.31899773820402433,False,False,0.41156103235072733,0.4478096498660835,7,1
interoceptive,0.551379480309002,True,False,0.633569602958059,0.5037850607553434,7,1
interoceptive,0.6065174283399022,True,True,0.47505075761392734,0.5243004070974662,7,1
interoceptive,0.545865685505912,False,True,0.6042050933513441,0.6116092125945313,7,1
interoceptive,0.4912791169553208,False,False,0.4419476138845266,0.47250290350154783,7,1
interoceptive,0.5404070286508529,False,False,0.39749874442094685,0.6004216393894424,7,1
interoceptive,0.5944477315159382,True,False,0.4339398402707437,0.5869265263745765,7,1
interoceptive,0.6538925046675321,True,True,0.27785670151096936,0.7630317453863409,7,1
interoceptive,0.588503254200779,True,True,0.5521767206016668,0.6623892989571089,7,1
interoceptive,0.5296529287807011,True,True,0.41943219200443616,0.5751637534034508,7,1
interoceptive,0.476687635902631,True,False,0.4577356926662206,0.21111625092512842,7,1
interoceptive,0.5243563994928941,False,False,0.34391008403400797,0.42744545054527794,7,1
interoceptive,0.5767920394421836,True,True,0.8399260268120478,0.5413286617485954,7,1
interoceptive,0.5191128354979653,True,True,0.5181527490431432,0.5147001669633953,7,1
interoceptive,0.46720155194816876,True,False,0.4205569586701133,0.35581096784028843,7,1
interoceptive,0.5139217071429857,True,True,0.4950511906499766,0.5752116576426436,7,1
interoceptive,0.4625295364286871,False,True,0.5102505217595849,0.7092335437053365,7,1
interoceptive,0.4162765827858184,True,True,0.5680928164299921,0.40809030014072656,7,1
interoceptive,0.3746489245072366,True,True,0.5350885778340124,0.3778402428765606,7,1
interoceptive,0.33718403205651293,False,False,0.5423052220654713,0.3313482311951011,7,1
interoceptive,0.37090243526216427,True,False,0.49429908879786516,0.31409144683539914,7,1
interoceptive,0.40799267878838075,False,True,0.46097809888400654,0.4694856341911122,7,1
interoceptive,0.36719341090954266,True,False,0.5036611137154132,0.2737968866261625,7,1
interoceptive,0.403912752000497,False,False,0.5681296017517357,0.44552121988069443,7,1
interoceptive,0.44430402720054674,True,False,0.5696509213557563,0.3927558113197634,7,1
interoceptive,0.48873442992060145,False,False,0.35966132084901153,0.5489823152504727,7,1
interoceptive,0.5376078729126617,False,False,0.6107918788696415,0.5402824311084038,7,1
interoceptive,0.5913686602039279,False,True,0.5964266204245936,0.7439221325728543,7,1
interoceptive,0.5322317941835351,False,False,0.6029350091183435,0.5042495439316543,7,1
interoceptive,0.5854549736018886,False,True,0.4979027914178088,0.8474101154169263,7,1
interoceptive,0.5269094762416997,True,False,0.5226471725302988,0.5585113326680983,7,1
interoceptive,0.5796004238658697,False,True,0.6078751117865722,0.5573396154706276,7,1
interoceptive,0.5216403814792828,False,False,0.2518534623631798,0.5200651954668115,7,1
interoceptive,0.5738044196272112,True,True,0.47661038647604503,0.6240634612202967,7,1
interoceptive,0.5164239776644901,False,True,0.5315547470270209,0.5119960922750258,7,1
interoceptive,0.4647815798980411,True,False,0.5263588981091989,0.42687403127389956,7,1
interoceptive,0.5112597378878453,True,True,0.613592637078378,0.5703482067417904,7,1
interoceptive,0.46013376409906076,True,False,0.4490227860472428,0.42160134079046674,7,1
interoceptive,0.5061471405089669,True,True,0.6112878572718029,0.5470858284320546,7,1
interoceptive,0.45553242645807024,True,False,0.703280118054194,0.35136795748585553,7,1
interoceptive,0.5010856691038773,False,False,0.5050184792180719,0.19693946955500113,7,1
interoceptive,0.5511942360142651,False,True,0.6050387446705964,0.7052353332316211,7,1
interoceptive,0.4960748124128386,True,False,0.5623531733889409,0.28314658457953473,7,1
interoceptive,0.5456822936541225,False,False,0.45127311218417376,0.3438245972751529,7,1
interoceptive,0.6002505230195347,False,True,0.6083678641826998,0.8065384219911166,7,1
interoceptive,0.5402254707175813,True,False,0.5756550190905464,0.4464528889362528,7,1
interoceptive,0.5942480177893394,False,False,0.48402007797297136,0.5628481554741044,7,1
interoceptive,0.6536728195682734,False,False,0.34489567748532834,0.5652041558898109,7,1
interoceptive,0.7190401015251008,False,True,0.4506764580162405,0.7142019467096214,7,1
interoceptive,0.6471360913725908,False,True,0.4397310152108208,0.6968845299379397,7,1
interoceptive,0.5824224822353317,False,True,0.4316925939437971,0.680398726171877,7,1
interoceptive,0.5241802340117985,False,True,0.4076647481616377,0.45473307821156506,8,1
interoceptive,0.4717622106106186,True,False,0.5211439406131133,0.4036595654885041,8,1
interoceptive,0.5189384316716805,True,True,0.5536876927107889,0.5749722315194071,8,1
interoceptive,0.46704458850451247,True,False,0.5968918485390735,0.3138012861166386,8,1
interoceptive,0.5137490473549637,False,True,0.5979914950706872,0.4072104713174507,8,1
interoceptive,0.46237414261946735,True,False,0.4676424795947219,0.47715147338500324,8,1
interoceptive,0.5086115568814141,False,False,0.5040486587246423,0.480507214935014,8,1
interoceptive,0.5594727125695556,False,True,0.476157325711471,0.6752915222381847,8,1
interoceptive,0.5035254413126,False,False,0.5179920224249699,0.46795965882461144,8,1
interoceptive,0.55387798544386,True,True,0.5034697901949455,0.6266085262411155,8,1
interoceptive,0.49849018689947405,True,True,0.5669456420105915,0.4868919326454561,8,1
interoceptive,0.44864116820952665,True,False,0.3972435053733359,0.2631012142424487,8,1
interoceptive,0.49350528503047936,False,True,0.4086769669031548,0.39673916715022306,8,1
interoceptive,0.4441547565274314,True,True,0.7370519942769892,0.44101225327893456,8,1
interoceptive,0.3997392808746883,False,False,0.5298072400306458,0.4083802382224451,8,1
interoceptive,0.43971320896215715,False,False,0.5628020562592388,0.39306310815474743,8,1
interoceptive,0.4836845298583729,False,True,0.389594548632535,0.4310472307653251,8,1
interoceptive,0.4353160768725356,True,False,0.5656450434882662,0.2693485080896321,8,1
interoceptive,0.4788476845597892,True,False,0.48212844764232116,0.5156647309749431,8,1
interoceptive,0.5267324530157682,True,False,0.5263278960386107,0.41440555920802724,8,1
interoceptive,0.5794056983173451,True,True,0.4824029989851846,0.6844354954163521,8,1
interoceptive,0.5214651284856107,True,True,0.49585717286162784,0.6212176553853572,8,1
interoceptive,0.46931861563704963,False,True,0.5699836961217071,0.317254751146554,8,1
interoceptive,0.4223867540733447,True,False,0.5534021109584941,0.40752149219525236,8,1
interoceptive,0.4646254294806792,False,True,0.3302723787650924,0.36497102132499415,8,1
interoceptive,0.4181628865326113,True,False,0.6237684080440551,0.4063858660148645,8,1
interoceptive,0.45997917518587245,False,False,0.3921826014600276,0.44545786183434805,8,1
interoceptive,0.5059770927044598,True,True,0.4895093307526871,0.4803400235162507,8,1
interoceptive,0.4553793834340138,False,True,0.7428005672045037,0.49928576551227166,8,1
interoceptive,0.40984144509061243,True,True,0.6711369462143604,0.3905788582836574,8,1
interoceptive,0.3688573005815512,False,False,0.4227300197606421,0.3462258140587292,8,1
interoceptive,0.40574303063970635,True,False,0.4934049974137024,0.36378383657134994,8,1
interoceptive,0.44631733370367704,True,True,0.6254490434859574,0.603555551019443,8,1
interoceptive,0.40168560033330936,False,False,0.39455682633822453,0.34513767979991167,8,1
interoceptive,0.4418541603666403,True,True,0.5098682492261503,0.6359859293625281,8,1
interoceptive,0.3976687443299763,False,False,0.5766326673115186,0.19298813425396752,8,1
interoceptive,0.43743561876297393,False,False,0.48206298761707883,0.3986676852168494,8,1
interoceptive,0.48117918063927134,True,True,0.4113213312748643,0.3913106080923176,8,1
interoceptive,0.4330612625753442,True,False,0.3387321646853931,0.4008209470493922,8,1
interoceptive,0.47636738883287866,True,True,0.5414881649128838,0.4809950207752792,8,1
interoceptive,0.4287306499495908,False,False,0.4484102318070126,0.3028162014222559,8,1
interoceptive,0.47160371494454995,True,True,0.38937102728526907,0.5583322092509253,8,1
interoceptive,0.42444334345009493,False,False,0.5684839969288734,0.49632844140999444,8,1
interoceptive,0.4668876777951045,True,True,0.5100584173132339,0.5581414643685119,8,1
interoceptive,0.42019891001559406,False,True,0.33105534990020175,0.5665135760615132,8,1
interoceptive,0.37817901901403467,False,True,0.6954745023140105,0.5665691588422814,8,1
interoceptive,0.34036111711263123,True,True,0.5897417024874216,0.2463006109963526,8,1
interoceptive,0.3063250054013681,True,False,0.42440743643169165,0.38235048511703174,8,1
interoceptive,0.3369575059415049,True,True,0.4850996327796344,0.3453726324280301,8,1
interoceptive,0.30326175534735444,False,True,0.4064300803944932,0.48442145298222294,8,1
control,0.3508975120244268,False,True,0.32119469490149977,0.41102121309141704,8,1
control,0.31580776082198414,False,False,0.437831864605469,0.2929259384738356,8,1
control,0.3473885369041826,False,True,0.4314070725687683,0.2603462337370884,8,1
control,0.31264968321376435,True,True,0.49542167190977443,0.2913551995593431,8,1
control,0.2813847148923879,False,False,0.5153709738730645,0.3895257056277264,8,1
control,0.30952318638162674,True,False,0.5155700207728519,0.33070535962265746,8,1
control,0.34047550501978946,False,False,0.38524917459929053,0.35489547027857143,8,1
control,0.37452305552176846,True,True,0.38946556018930817,0.49567053496776914,8,1
control,0.33707074996959163,True,False,0.46529684745394023,0.43944310381442964,8,1
control,0.3707778249665508,True,True,0.5207875463903259,0.5203506068202277,8,1
control,0.33370004246989576,False,True,0.5474168431327749,0.47541151698754625,8,1
control,0.3003300382229062,True,False,0.5208566467741602,0.5987201894346335,8,1
control,0.33036304204519684,False,False,0.5483584135251821,0.36796498951891166,8,1
control,0.36339934624971654,True,False,0.5042045629412675,0.4649986692778808,8,1
control,0.39973928087468824,False,False,0.4171955608164782,0.43939924122381085,8,1
control,0.4397132089621571,True,False,0.5295297175482344,0.4603008479112313,8,1
control,0.48368452985837285,True,False,0.45362418933538906,0.2608575899020189,8,1
control,0.5320529828442102,True,True,0.34298813100726744,0.4851336792059219,8,1
control,0.4788476845597892,True,True,0.4565846658730561,0.4475158265424507,8,1
control,0.4309629161038103,True,True,0.5640717808833341,0.6077067174568216,8,1
control,0.3878666244934293,True,True,0.5168749973416599,0.4326253607144687,8,1
control,0.34907996204408637,False,True,0.49505672502130793,0.3237888224712332,8,1
control,0.3141719658396777,False,True,0.3518306114230702,0.37369064271750796,8,1
control,0.28275476925570997,False,False,0.40980973328827586,0.4085222009506826,8,1
control,0.311030246181281,False,True,0.48252359286323104,0.36441048910159946,8,1
control,0.2799272215631529,True,True,0.3561326436972961,0.48413511598326747,8,1
control,0.25193449940683765,False,False,0.5606409376094231,0.3169765005033752,8,1
control,0.27712794934752144,True,False,0.4836506079875389,0.4094914033707766,8,1
control,0.3048407442822736,False,False,0.625584192992282,0.4082940646331912,8,1
control,0.33532481871050096,False,True,0.5138075977146874,0.4976396136086272,8,1
control,0.3017923368394509,True,False,0.5233152237258727,0.27302955644469007,8,1
control,0.331971570523396,True,True,0.6198642653125043,0.30835650497729306,8,1
control,0.2987744134710564,True,False,0.43486690959290963,0.3477471232814227,8,1
control,0.32865185481816206,False,False,0.4425254217571518,0.4499289043813771,8,1
control,0.3615170402999783,False,False,0.3855927048867578,0.5424995990370431,8,1
control,0.3976687443299761,False,True,0.436707693913727,0.48249480952625506,8,1
control,0.35790186989697853,True,False,0.2897393927095426,0.4313742174253046,8,1
control,0.3936920568866764,False,False,0.30813881259318315,0.4619957125321031,8,1
control,0.4330612625753441,True,True,0.528935311627311,0.46759928210071133,8,1
control,0.3897551363178097,False,False,0.5199720697215972,0.4370524721298311,8,1
control,0.42873064994959076,False,False,0.5294101639240827,0.2629450115859334,8,1
control,0.4716037149445499,False,False,0.5671889422146124,0.46355831038344764,8,1
control,0.518764086439005,True,False,0.3200342868017833,0.49093115828815154,8,1
control,0.5706404950829055,False,False,0.537609838612622,0.6678980881295038,8,1
control,0.6277045445911961,False,False,0.5789041915777167,0.7102740242823223,8,1
control,0.6904749990503157,True,False,0.42216462482739303,0.5233042160892628,8,1
control,0.7595224989553474,False,True,0.4157794506286323,0.6077710880867453,8,1
control,0.6835702490598127,True,False,0.5222553275422435,0.4474840397386909,8,1
control,0.751927273965794,True,True,0.6127412796230092,0.6308336362233964,8,1
control,0.6767345465692146,False,False,0.4088928391080188,0.4572821694831313,8,1
exteroceptive,0.42887473691874334,False,True,0.4826168077517088,0.5807120509169181,8,1
exteroceptive,0.385987263226869,True,True,0.30836811292803323,0.4524873369163156,8,1
exteroceptive,0.3473885369041821,True,False,0.4970771203823756,0.6003933687281517,8,1
exteroceptive,0.3821273905946003,False,False,0.5091155209270876,0.34467835140337333,8,1
exteroceptive,0.42034012965406037,True,False,0.4692202409070317,0.43310116470172083,8,1
exteroceptive,0.46237414261946647,False,False,0.6714792716818102,0.4668707298949586,8,1
exteroceptive,0.5086115568814131,True,True,0.8198117162315037,0.5669096246253646,8,1
exteroceptive,0.4577504011932718,False,False,0.5174024503763971,0.6920163818209069,8,1
exteroceptive,0.503525441312599,True,False,0.5540886313134232,0.4110780483895288,8,1
exteroceptive,0.553877985443859,False,False,0.5309985206208433,0.5529599239718718,8,1
exteroceptive,0.6092657839882449,True,True,0.3113578884516817,0.5676560920389047,8,1
exteroceptive,0.5483392055894205,False,True,0.482213973570869,0.5044532689391679,8,1
exteroceptive,0.49350528503047847,False,True,0.4206159497445907,0.5691851202821655,8,1
exteroceptive,0.44415475652743064,True,False,0.5964023289666354,0.3566170342046145,8,1
exteroceptive,0.48857023218017376,True,False,0.32446890721074956,0.43551959001281326,8,1
exteroceptive,0.5374272553981911,False,True,0.46816738812796926,0.5354115988204707,8,1
exteroceptive,0.483684529858372,True,False,0.5054932887043192,0.52891186334758,8,1
exteroceptive,0.5320529828442092,False,True,0.6758656845200152,0.6618058754931941,8,1
exteroceptive,0.4788476845597883,False,False,0.4586103139986298,0.3697562056839355,8,1
exteroceptive,0.5267324530157672,False,False,0.4701957878826786,0.6467803810780206,8,1
exteroceptive,0.579405698317344,True,True,0.4383298824582934,0.6482748326801111,8,1
exteroceptive,0.5214651284856097,True,True,0.4420229483742912,0.7474670433523048,8,1
exteroceptive,0.4693186156370487,True,False,0.5535970981007072,0.240146265344087,8,1
exteroceptive,0.5162504772007536,True,True,0.4426318987862694,0.4794178344011435,8,1
exteroceptive,0.4646254294806782,True,True,0.6282095126268074,0.35179775563827126,8,1
exteroceptive,0.4181628865326104,True,False,0.35012865344386435,0.3593180292166338,8,1
exteroceptive,0.4599791751858715,False,False,0.31977594689199973,0.5483456269597231,8,1
exteroceptive,0.5059770927044587,False,False,0.4109669943100991,0.5086556762502636,8,1
exteroceptive,0.5565748019749046,True,True,0.5819229468271625,0.4571218476206302,8,1
exteroceptive,0.5009173217774142,False,True,0.26728413584974514,0.5152246053719843,8,1
exteroceptive,0.4508255895996728,False,False,0.5097753541851837,0.553565975593072,8,1
exteroceptive,0.4959081485596401,False,True,0.38919327661004993,0.4996871044472627,8,1
exteroceptive,0.4463173337036761,True,True,0.6146786497855645,0.44258785880395907,8,1
