condition,contrast,is_synchronous,response,rt,detection_prob,participant_id,trial_num
control,0.5,True,False,0.5000239721217261,0.7124803162075148,1,1
control,0.55,False,False,0.41965341138861356,0.5227811702601054,1,1
control,0.6050000000000001,False,False,0.5373037879400359,0.5106862747676586,1,1
control,0.6655000000000002,True,True,0.557212230747401,0.6664199469027313,1,1
control,0.5989500000000002,False,False,0.4769668393372158,0.5379315621595899,1,1
control,0.6588450000000002,True,True,0.6469316872365641,0.6080211506131629,1,1
control,0.5929605000000002,False,False,0.45444090856719166,0.5751362928568996,1,1
control,0.6522565500000003,False,True,0.34209045398538046,0.5258368310368264,1,1
control,0.5870308950000003,False,True,0.4515940809990608,0.47646349822013045,1,1
control,0.5283278055000002,False,True,0.5375467812606459,0.5471379329499206,1,1
control,0.47549502495000023,True,False,0.4055561870891374,0.4014088497695547,1,1
control,0.5230445274450003,False,True,0.5078640770085943,0.3341002850031648,1,1
control,0.4707400747005003,True,False,0.452718473244495,0.44695873697157756,1,1
control,0.5178140821705504,True,True,0.5448968129390512,0.5225547566884075,1,1
control,0.46603267395349535,True,False,0.5003468227375374,0.34528721668747875,1,1
control,0.5126359413488449,True,True,0.40913234598944076,0.5817834927288815,1,1
control,0.4613723472139605,True,False,0.42887324963657397,0.4984740078681705,1,1
control,0.5075095819353566,True,False,0.4390557558705513,0.5523975462227447,1,1
control,0.5582605401288923,True,True,0.4904330309569518,0.5331711501588766,1,1
control,0.502434486116003,False,True,0.33486950850086294,0.5629671907166558,1,1
control,0.45219103750440276,False,True,0.5205625528489725,0.5054062529506209,1,1
control,0.4069719337539625,True,False,0.5603351677591499,0.27567135327417536,1,1
control,0.4476691271293588,True,False,0.37317216805624376,0.2526775027573623,1,1
control,0.4924360398422947,True,True,0.5779687757792752,0.4104231485823662,1,1
control,0.4431924358580653,True,False,0.54952527501894,0.29025278731816706,1,1
control,0.48751167944387186,True,True,0.5126226214036557,0.564302630393131,1,1
control,0.4387605114994847,True,False,0.592875698652924,0.3552029084240413,1,1
control,0.4826365626494332,True,True,0.4761258179728515,0.5758981881021465,1,1
control,0.4343729063844899,False,True,0.6102526195956781,0.4496454444057682,1,1
control,0.3909356157460409,True,True,0.5026593381085254,0.6418430847161041,1,1
control,0.3518420541714368,True,False,0.5235870153366221,0.416802354002971,1,1
control,0.38702625958858056,True,True,0.32608657299239197,0.4223066159244406,1,1
control,0.3483236336297225,False,False,0.5538970729281923,0.28464565990514623,1,1
control,0.3831559969926948,True,False,0.44780867674654623,0.41787068441463965,1,1
control,0.4214715966919643,True,True,0.5462084487369936,0.5077137543967188,1,1
control,0.3793244370227679,True,False,0.4845745286579293,0.37657961736933376,1,1
control,0.41725688072504474,True,True,0.615244429896594,0.5164233669025831,1,1
control,0.37553119265254026,False,True,0.5422094711472878,0.4481172260890099,1,1
control,0.33797807338728625,True,False,0.450125561206608,0.5130397651046443,1,1
control,0.3717758807260149,False,False,0.39275006887554986,0.2955925997929683,1,1
control,0.40895346879861644,True,True,0.6862427041115259,0.43380939458326834,1,1
control,0.3680581219187548,False,False,0.5442135525757085,0.35026412494686143,1,1
control,0.4048639341106303,True,False,0.5676786170804706,0.3198269883071439,1,1
control,0.4453503275216934,False,True,0.6285870916190297,0.48451817086286936,1,1
control,0.40081529476952404,False,False,0.5221773353506294,0.17885050835020216,1,1
control,0.44089682424647647,True,True,0.49841089395063115,0.40058273091134183,1,1
control,0.39680714182182886,False,False,0.5505420879376438,0.38429910138607126,1,1
control,0.4364878560040118,True,True,0.49383594126453295,0.5041275573164727,1,1
control,0.3928390704036106,True,False,0.25975240140326683,0.2652594446739521,1,1
control,0.4321229774439717,True,False,0.5802045534363385,0.40951258217744985,1,1
interoceptive,0.5,True,True,0.4442023422257959,0.7212287896086751,1,1
interoceptive,0.45,False,True,0.5585831207356242,0.4217277011380622,1,1
interoceptive,0.405,False,True,0.4726253428770186,0.4660093981186716,1,1
interoceptive,0.36450000000000005,True,True,0.6277755422139536,0.3241643094940051,1,1
interoceptive,0.32805000000000006,True,True,0.5559480495672431,0.45838486154039576,1,1
interoceptive,0.2952450000000001,False,True,0.4247454463731486,0.3783343143490955,1,1
interoceptive,0.2657205000000001,False,True,0.49045950393289905,0.3489727132775584,1,1
interoceptive,0.23914845000000007,False,False,0.5411354661123188,0.2844480980002301,1,1
interoceptive,0.2630632950000001,True,False,0.5092346540564825,0.25189284692737846,1,1
interoceptive,0.28936962450000014,True,False,0.620228280566193,0.2431091341604701,1,1
interoceptive,0.3183065869500002,False,True,0.39058078761284654,0.40685280027978166,1,1
interoceptive,0.2864759282550002,True,False,0.4483613892635957,0.28349726467383607,1,1
interoceptive,0.31512352108050024,True,False,0.6443073612509733,0.3210260023637798,1,1
interoceptive,0.34663587318855027,False,False,0.4801457504777831,0.3527895076072921,1,1
interoceptive,0.3812994605074053,True,False,0.4215622845116494,0.3161853591404403,1,1
interoceptive,0.41942940655814587,True,True,0.45625838389159085,0.393969992016323,1,1
interoceptive,0.3774864659023313,False,True,0.5887960532583167,0.3218335185917006,1,1
interoceptive,0.3397378193120982,True,True,0.44151546441856176,0.42750497812916555,1,1
interoceptive,0.30576403738088836,True,False,0.6892637497955656,0.413345068998255,1,1
interoceptive,0.3363404411189772,False,False,0.6150804245065917,0.4822088706742169,1,1
interoceptive,0.36997448523087495,False,False,0.33412471542137157,0.4166536828670035,1,1
interoceptive,0.40697193375396246,True,False,0.5349820323811394,0.47520912111292385,1,1
interoceptive,0.44766912712935875,False,True,0.4191491252317693,0.4849238838230901,1,1
interoceptive,0.4029022144164229,True,True,0.38864163279454467,0.42004652691947647,1,1
interoceptive,0.3626119929747806,False,False,0.6737053978629927,0.3381866537639927,1,1
interoceptive,0.39887319227225865,True,True,0.41033622487308624,0.28345923139386064,1,1
interoceptive,0.35898587304503277,True,True,0.6049940771872084,0.44117993706818814,1,1
interoceptive,0.3230872857405295,False,False,0.5658162815254171,0.19155992283343087,1,1
interoceptive,0.35539601431458245,True,False,0.4894403207798283,0.3185670054279614,1,1
interoceptive,0.39093561574604074,False,False,0.5213205302429955,0.5637643673135637,1,1
interoceptive,0.43002917732064483,True,False,0.47939734345997204,0.3611365768138468,1,1
interoceptive,0.4730320950527093,False,True,0.4863368527450574,0.5561230053711159,1,1
interoceptive,0.4257288855474384,False,True,0.4621256070229137,0.6370568722882757,1,1
interoceptive,0.38315599699269454,True,False,0.5775695113718837,0.3378543031983175,1,1
interoceptive,0.42147159669196405,True,True,0.6500374211937464,0.3718795247962861,1,1
interoceptive,0.37932443702276764,False,False,0.5660603946651056,0.26794641570114786,1,1
interoceptive,0.4172568807250444,False,True,0.49140660292841964,0.628194195371204,1,1
interoceptive,0.37553119265254,False,False,0.31089073109056914,0.3169285749296279,1,1
interoceptive,0.413084311917794,False,True,0.7606292219790023,0.3725244090364866,1,1
interoceptive,0.3717758807260146,False,False,0.46563471224037517,0.4317880149500413,1,1
interoceptive,0.40895346879861605,True,True,0.6693441295296824,0.3383894620135538,1,1
interoceptive,0.3680581219187545,False,False,0.3142834554567717,0.2441450923397439,1,1
interoceptive,0.40486393411062993,False,True,0.454398912708859,0.568983760290892,1,1
interoceptive,0.36437754069956696,False,False,0.45802260320950516,0.36420853756329397,1,1
interoceptive,0.4008152947695237,True,True,0.45667154348117595,0.39710613278910606,1,1
interoceptive,0.36073376529257134,True,True,0.6619818173275099,0.3851362425807693,1,1
interoceptive,0.3246603887633142,True,True,0.668529420219424,0.33231543432372207,1,1
interoceptive,0.2921943498869828,False,False,0.5294105450169312,0.25311568439955345,1,1
interoceptive,0.32141378487568106,True,False,0.4782779895614115,0.3531450848763524,1,1
interoceptive,0.3535551633632492,True,False,0.6090019062604541,0.3159857641881789,1,1
exteroceptive,0.5,False,False,0.7387941149438639,0.5012497914571377,1,1
exteroceptive,0.55,True,False,0.5873658929304657,0.5366013268918551,1,1
exteroceptive,0.6050000000000001,False,False,0.4631517567145366,0.6611753265548876,1,1
exteroceptive,0.6655000000000002,False,False,0.45343834688794765,0.6582644064815906,1,1
exteroceptive,0.7320500000000003,True,True,0.5410790118699854,0.6058539558090629,1,1
exteroceptive,0.6588450000000003,False,False,0.4552286224294541,0.7214577290652436,1,1
exteroceptive,0.7247295000000005,True,True,0.5092326028975908,0.7090473447398331,1,1
exteroceptive,0.6522565500000005,False,True,0.5390837483276157,0.6657198385996607,1,1
exteroceptive,0.5870308950000005,True,True,0.48277126391832054,0.6834942910164097,1,1
exteroceptive,0.5283278055000005,False,True,0.4673449984562565,0.3836178317641943,1,1
exteroceptive,0.47549502495000046,False,False,0.5387528528416958,0.4762067071530491,1,1
exteroceptive,0.5230445274450005,True,True,0.3887638082372043,0.5903780363511698,1,1
exteroceptive,0.4707400747005005,False,True,0.5449157463827691,0.49762942664217924,1,1
exteroceptive,0.42366606723045047,False,True,0.4682843581592048,0.3556780247350896,1,1
exteroceptive,0.38129946050740543,True,False,0.3772785378357355,0.5034082808307829,1,1
exteroceptive,0.41942940655814603,False,False,0.6306359322608629,0.4222548831341614,1,1
exteroceptive,0.4613723472139607,False,True,0.4054483123429953,0.6770847958858561,1,1
exteroceptive,0.4152351124925646,False,True,0.6082017576881601,0.37696027934984266,1,1
exteroceptive,0.37371160124330816,False,False,0.36905239534892276,0.38475729845845685,1,1
exteroceptive,0.411082761367639,False,True,0.5120202109605889,0.4523373566272066,1,1
exteroceptive,0.3699744852308751,True,False,0.4157929330207738,0.5095646875828597,1,1
exteroceptive,0.4069719337539627,True,True,0.47946535119135025,0.4900010371310253,1,1
exteroceptive,0.36627474037856644,True,False,0.5957671901875733,0.09838182308279769,1,1
exteroceptive,0.4029022144164231,True,False,0.4763558216687326,0.4289344009659362,1,1
exteroceptive,0.44319243585806545,True,False,0.5190857457759249,0.45006161993070015,1,1
exteroceptive,0.487511679443872,True,False,0.35471261714362234,0.696482115669745,1,1
exteroceptive,0.5362628473882592,False,True,0.42377027505667314,0.4878078443553711,1,1
exteroceptive,0.48263656264943333,True,False,0.5533572018295037,0.3640232539824838,1,1
exteroceptive,0.5309002189143767,True,True,0.6144571691035468,0.5762907561688916,1,1
exteroceptive,0.47781019702293903,False,False,0.3681608734158177,0.5155151792178907,1,1
exteroceptive,0.525591216725233,False,True,0.47339552663741125,0.33926293336238234,1,1
exteroceptive,0.4730320950527097,False,False,0.6082316700435878,0.5635318026875138,1,1
exteroceptive,0.5203353045579807,True,False,0.48218075240805225,0.4498766659293234,1,1
exteroceptive,0.5723688350137789,True,True,0.49186714743952925,0.42970255932405665,1,1
exteroceptive,0.515131951512401,False,False,0.4565840463934424,0.4972116846690506,1,1
exteroceptive,0.5666451466636412,True,False,0.4324576354981796,0.3621856843209785,1,1
exteroceptive,0.6233096613300053,True,True,0.38513722483101676,0.6564180226835727,1,1
exteroceptive,0.5609786951970048,False,False,0.5422883825941645,0.5439500259971847,1,1
exteroceptive,0.6170765647167054,False,True,0.45378458524614107,0.7811441415591422,1,1
exteroceptive,0.5553689082450348,False,False,0.8056558908913566,0.6170204916933788,1,1
exteroceptive,0.6109057990695383,False,False,0.4069164816969534,0.7832864748932575,1,1
exteroceptive,0.6719963789764922,True,True,0.5039282548774571,0.6510913042758858,1,1
exteroceptive,0.6047967410788431,True,True,0.3918728462334536,0.6021012509233917,1,1
exteroceptive,0.5443170669709588,True,True,0.5098023822751627,0.4839819142081436,1,1
exteroceptive,0.489885360273863,True,True,0.43104552141412045,0.46066456214041746,1,1
exteroceptive,0.4408968242464767,True,True,0.331011531442785,0.36274876920257715,1,1
exteroceptive,0.396807141821829,False,False,0.5667765331381316,0.3327704274988081,1,1
exteroceptive,0.43648785600401196,True,False,0.6249082723062148,0.45281217818714337,1,1
exteroceptive,0.4801366416044132,False,False,0.6259934963433287,0.47496123177329075,1,1
exteroceptive,0.5281503057648546,False,False,0.5895048952200725,0.5338696548179891,1,1
exteroceptive,0.5809653363413401,True,True,0.6142581870420205,0.5423870064349547,2,1
exteroceptive,0.522868802707206,True,True,0.48419623063580874,0.4148629768812606,2,1
exteroceptive,0.47058192243648544,False,False,0.5859018226433147,0.49951524165410016,2,1
exteroceptive,0.517640114680134,True,True,0.627530753031383,0.5633505914901917,2,1
exteroceptive,0.46587610321212064,False,True,0.616123653404668,0.5593411957878383,2,1
exteroceptive,0.4192884928909086,True,True,0.4963767367365138,0.4865563460497944,2,1
exteroceptive,0.37735964360181773,True,True,0.3953569881688085,0.49318154190106933,2,1
exteroceptive,0.33962367924163595,False,False,0.5048791447456439,0.5350187614709971,2,1
exteroceptive,0.3735860471657996,True,False,0.5095313472655596,0.3831966294127164,2,1
exteroceptive,0.41094465188237955,False,True,0.5206049860747384,0.4548275509491527,2,1
exteroceptive,0.3698501866941416,False,False,0.5792940988493807,0.4053131980656788,2,1
exteroceptive,0.4068352053635558,False,True,0.49330172393489163,0.5776513172213574,2,1
exteroceptive,0.36615168482720023,False,True,0.5480396764893285,0.33231539736719223,2,1
exteroceptive,0.3295365163444802,True,False,0.584985148439507,0.4492586361138732,2,1
exteroceptive,0.3624901679789283,False,False,0.5755457427105473,0.29106780406659105,2,1
exteroceptive,0.3987391847768212,False,True,0.40449646069990597,0.35724519650217695,2,1
exteroceptive,0.35886526629913906,False,False,0.5990748068112985,0.3697290069430595,2,1
exteroceptive,0.394751792929053,False,True,0.6544690658383306,0.44961894651020246,2,1
exteroceptive,0.3552766136361477,False,False,0.49083601800969584,0.36092914087037375,2,1
exteroceptive,0.3908042749997625,False,True,0.3300481759995661,0.5879139405731826,2,1
exteroceptive,0.35172384749978625,True,False,0.5156440344023202,0.293572151757435,2,1
exteroceptive,0.3868962322497649,True,False,0.45172591525718087,0.30400328402072885,2,1
exteroceptive,0.4255858554747414,True,False,0.7438604506445712,0.4898018496540224,2,1
exteroceptive,0.4681444410222156,True,False,0.43858578602015136,0.40375331793276503,2,1
exteroceptive,0.5149588851244372,False,False,0.6023705288310325,0.6655521629118379,2,1
exteroceptive,0.566454773636881,True,False,0.4827181090340816,0.5865446255558875,2,1
exteroceptive,0.6231002510005692,True,True,0.3437194717065542,0.5358194700997004,2,1
exteroceptive,0.5607902259005123,False,True,0.5235678853272964,0.5421087009246541,2,1
exteroceptive,0.504711203310461,False,True,0.42108542767294455,0.4873345496705434,2,1
exteroceptive,0.4542400829794149,False,False,0.6200670672001016,0.5126703065743662,2,1
exteroceptive,0.49966409127735645,True,True,0.32262705034986094,0.6611682044592948,2,1
exteroceptive,0.4496976821496208,False,True,0.5468519330009338,0.5535820502769222,2,1
exteroceptive,0.40472791393465873,False,True,0.4013902105903059,0.46148537223233405,2,1
exteroceptive,0.36425512254119286,True,False,0.41387221686540576,0.3026242711047386,2,1
exteroceptive,0.4006806347953122,False,False,0.8364949789752336,0.5306134661752586,2,1
exteroceptive,0.4407486982748434,True,True,0.6600674979266274,0.577195889800006,2,1
exteroceptive,0.3966738284473591,True,True,0.4887829503850943,0.5273691095191724,2,1
exteroceptive,0.3570064456026232,False,False,0.619704173372216,0.3267264300769653,2,1
exteroceptive,0.3927070901628855,False,False,0.5846615157056059,0.28110306156083376,2,1
exteroceptive,0.4319777991791741,True,True,0.5244123199902075,0.46224272597322585,2,1
exteroceptive,0.3887800192612567,True,False,0.59958519471219,0.5934774679361122,2,1
exteroceptive,0.42765802118738244,True,True,0.3799228697338228,0.5487277695786623,2,1
exteroceptive,0.3848922190686442,True,False,0.37811506148604207,0.3955744807028543,2,1
exteroceptive,0.4233814409755086,True,False,0.4908917513903382,0.36570230984865887,2,1
exteroceptive,0.4657195850730595,True,True,0.44149706386862875,0.46425639734313057,2,1
exteroceptive,0.41914762656575355,True,False,0.35706318110460394,0.40723269184876787,2,1
exteroceptive,0.46106238922232895,False,True,0.4462537384904625,0.4467611916728212,2,1
exteroceptive,0.4149561503000961,False,False,0.6380183502013088,0.32056540748732365,2,1
exteroceptive,0.45645176533010573,True,True,0.5848546364527688,0.40938037510613323,2,1
exteroceptive,0.41080658879709514,False,False,0.4676364275240444,0.5505347397855349,2,1
interoceptive,0.38891067969957416,True,True,0.4593007015808052,0.37049983759344884,2,1
interoceptive,0.35001961172961676,False,True,0.561074815961229,0.14980454720852138,2,1
interoceptive,0.3150176505566551,False,True,0.5117095821181035,0.37350063728553684,2,1
interoceptive,0.2835158855009896,False,True,0.3977149110791699,0.37194957980676047,2,1
interoceptive,0.25516429695089066,False,True,0.46256260684575845,0.32529227766510904,2,1
interoceptive,0.2296478672558016,False,False,0.44942634687113436,0.2063245497023056,2,1
interoceptive,0.2526126539813818,True,False,0.43128553391168384,0.1299602565884776,2,1
interoceptive,0.27787391937952,True,False,0.5097573248856299,0.19440859597225443,2,1
interoceptive,0.30566131131747204,False,True,0.5347933094018905,0.32119951935075114,2,1
interoceptive,0.2750951801857248,False,False,0.4626128812664382,0.2811394639161479,2,1
interoceptive,0.3026046982042973,True,False,0.42180381331031513,0.26349295724798644,2,1
interoceptive,0.33286516802472704,True,False,0.46984043799859887,0.3752004177185532,2,1
interoceptive,0.3661516848271998,True,True,0.5855554959309999,0.2773507454301725,2,1
interoceptive,0.32953651634447984,True,False,0.4852322992112671,0.330939806879122,2,1
interoceptive,0.36249016797892786,False,False,0.45103310907564226,0.3123829734181582,2,1
interoceptive,0.3987391847768207,False,True,0.3471748306293795,0.5519935473728106,2,1
interoceptive,0.3588652662991386,True,False,0.5463761372542356,0.2973887885341493,2,1
interoceptive,0.3947517929290525,True,False,0.6239404759700391,0.4779730070981997,2,1
interoceptive,0.4342269722219578,False,True,0.4462795250428981,0.39157008114200836,2,1
interoceptive,0.390804274999762,False,False,0.6168439325097576,0.2929929114366204,2,1
interoceptive,0.42988470249973826,True,False,0.5721846111644577,0.4015400143828697,2,1
interoceptive,0.47287317274971213,True,False,0.5338355732499896,0.40824818030838583,2,1
interoceptive,0.5201604900246833,True,False,0.43529466042612586,0.31663476600290197,2,1
interoceptive,0.5721765390271517,True,False,0.3647354898858264,0.48859623791105816,2,1
interoceptive,0.629394192929867,True,True,0.4686544348311314,0.7266419467655527,2,1
interoceptive,0.5664547736368803,True,False,0.616641110962893,0.46094361313574994,2,1
interoceptive,0.6231002510005684,False,True,0.529825417063896,0.7409391445549878,2,1
interoceptive,0.5607902259005116,False,True,0.5668623396091239,0.5658091614242465,2,1
interoceptive,0.5047112033104605,True,False,0.7395122009395699,0.25966588471378094,2,1
interoceptive,0.5551823236415065,False,False,0.3398728682753277,0.7116097987771473,2,1
interoceptive,0.6107005560056572,True,True,0.6931085080417343,0.4263668350485463,2,1
interoceptive,0.5496305004050915,True,True,0.6111195443735099,0.5954574547094481,2,1
interoceptive,0.4946674503645824,True,True,0.45998199513931903,0.3526599276869763,2,1
interoceptive,0.44520070532812417,True,True,0.5684209489499746,0.39679245554007114,2,1
interoceptive,0.40068063479531174,True,True,0.7872234581688238,0.49426833893180533,2,1
interoceptive,0.36061257131578056,True,True,0.4800660551059479,0.19956547565800692,2,1
interoceptive,0.3245513141842025,False,False,0.5537963452925633,0.4322306048764921,2,1
interoceptive,0.3570064456026228,False,False,0.34347851844224486,0.24329364719934649,2,1
interoceptive,0.3927070901628851,True,False,0.6487358092146304,0.33936769631796543,2,1
interoceptive,0.4319777991791736,True,False,0.7314648725917826,0.38523304384012463,2,1
interoceptive,0.475175579097091,False,False,0.5558969308393357,0.542756808443591,2,1
interoceptive,0.5226931370068002,False,True,0.4970732587949683,0.5679173399014429,2,1
interoceptive,0.4704238233061202,False,False,0.40086590202863454,0.5479267701407311,2,1
interoceptive,0.5174662056367323,False,False,0.4535144898738192,0.4882211835751159,2,1
interoceptive,0.5692128262004056,False,True,0.5276098708255814,0.3838701234456637,2,1
interoceptive,0.512291543580365,False,False,0.5526118521208638,0.5720591047038446,2,1
interoceptive,0.5635206979384015,False,True,0.4483286148099304,0.7349842451940826,2,1
interoceptive,0.5071686281445614,True,False,0.5531394628282865,0.39860816091033424,2,1
interoceptive,0.5578854909590176,False,True,0.29793909378527894,0.5506253529381018,2,1
interoceptive,0.5020969418631159,False,True,0.27920662442013267,0.5546697384952252,2,1
control,0.47533527518836893,True,False,0.4758825603405061,0.4375126697675232,2,1
control,0.5228688027072058,True,False,0.5095858622330524,0.07753304853229781,2,1
control,0.5751556829779264,True,True,0.5809209555518509,0.6848891469814261,2,1
control,0.5176401146801338,False,True,0.43360161901300837,0.3858903917549788,2,1
control,0.4658761032121205,False,False,0.4698331467737504,0.5475305761129534,2,1
control,0.5124637135333325,False,False,0.41084041520992476,0.5428386122188118,2,1
control,0.5637100848866659,False,True,0.40926033072255663,0.5077063103372322,2,1
control,0.5073390763979992,False,False,0.480190457230236,0.36957728442461246,2,1
control,0.5580729840377993,False,True,0.484123396384389,0.42638069483508756,2,1
control,0.5022656856340193,True,True,0.47568576936383594,0.47162680639286675,2,1
control,0.4520391170706174,True,False,0.5015754447779042,0.5472510127132898,2,1
control,0.4972430287776792,True,False,0.592626085358019,0.5765847685712502,2,1
control,0.5469673316554471,False,True,0.6206096974432818,0.7155800148248999,2,1
control,0.4922705984899024,False,True,0.46487712624082184,0.4530453120448455,2,1
control,0.44304353864091217,False,True,0.40607936585120674,0.4505306550882572,2,1
control,0.39873918477682097,True,False,0.48064478166088104,0.5316247236135041,2,1
control,0.4386131032545031,False,False,0.6013741158752068,0.3480656184428681,2,1
control,0.48247441357995347,True,True,0.38631028465755757,0.2754071861825541,2,1
control,0.4342269722219581,True,True,0.4820259327276829,0.4637810147080018,2,1
control,0.3908042749997623,False,False,0.49262808145394543,0.3328546043665472,2,1
control,0.42988470249973854,False,True,0.5649962290288781,0.5015566819070488,2,1
control,0.3868962322497647,False,True,0.420513693061079,0.4617021087226017,2,1
control,0.3482066090247882,True,False,0.554585695525846,0.3189386333659472,2,1
control,0.3830272699272671,False,True,0.49634651835696386,0.5060161450924744,2,1
control,0.3447245429345404,False,False,0.45350119007952266,0.3067308028024491,2,1
control,0.3791969972279945,True,False,0.5793567373233719,0.38100101122920127,2,1
control,0.41711669695079395,True,False,0.46852917414375556,0.4788606375872933,2,1
control,0.4588283666458734,False,True,0.5650072822113689,0.4899143500135353,2,1
control,0.4129455299812861,False,False,0.5430759023814303,0.4980974718425444,2,1
control,0.4542400829794147,True,False,0.4099064366469839,0.6545334983964289,2,1
control,0.4996640912773562,False,False,0.4931714214583938,0.5460866612476726,2,1
control,0.5496305004050919,True,True,0.6777051119499746,0.5976803405157602,2,1
control,0.4946674503645827,True,False,0.4886004215517995,0.5907644245533247,2,1
control,0.544134195401041,True,True,0.4273613831769408,0.48105663817501115,2,1
control,0.48972077586093693,True,False,0.53561404168398,0.45200507396086986,2,1
control,0.5386928534470307,True,False,0.49844986456334733,0.4158327482506563,2,1
control,0.5925621387917338,False,True,0.5319588879523758,0.5086519993052371,2,1
control,0.5333059249125605,True,True,0.3810578491714586,0.40977549547994224,2,1
control,0.4799753324213044,False,False,0.2762425051570325,0.5153742641576651,2,1
control,0.5279728656634349,False,False,0.4837904356921029,0.5488142784764186,2,1
control,0.5807701522297785,False,True,0.774419061340132,0.5996986939371787,2,1
control,0.5226931370068006,False,True,0.5918578537741099,0.7188952738433334,2,1
control,0.4704238233061206,False,False,0.4868009794739724,0.5203007731501564,2,1
control,0.5174662056367327,True,True,0.45929469470637285,0.543977847378063,2,1
control,0.4657195850730595,False,False,0.28105267317055727,0.5821135298896166,2,1
control,0.5122915435803654,True,False,0.48604589753608524,0.5005863575964401,2,1
control,0.563520697938402,True,True,0.3874877492331563,0.6008011693063247,2,1
control,0.5071686281445618,False,False,0.4117124189392248,0.37483811754297414,2,1
control,0.557885490959018,True,True,0.5189143326156161,0.5830072336492849,2,1
control,0.5020969418631162,False,True,0.4588647509402661,0.5483190293557357,2,1
control,0.45188724767680455,True,False,0.48750383485541493,0.35686906818046626,3,1
control,0.49707597244448504,False,False,0.46864195881766296,0.538642081382548,3,1
control,0.5467835696889336,True,True,0.5291992140245669,0.555121656057396,3,1
control,0.49210521272004026,False,True,0.4111426926367461,0.7199391071661781,3,1
control,0.4428946914480362,False,False,0.6345558470287791,0.586695413693988,3,1
control,0.48718416059283987,True,True,0.4886382912622929,0.6043684125324671,3,1
control,0.4384657445335559,False,True,0.5861960618467644,0.5182345232968953,3,1
control,0.3946191700802003,False,True,0.4780010762709919,0.4473214696283354,3,1
control,0.35515725307218027,True,True,0.4809293398469467,0.5788489601073763,3,1
control,0.31964152776496224,False,False,0.41097517147898355,0.34679893531880956,3,1
control,0.3516056805414585,False,False,0.566971920734767,0.24563017084817404,3,1
control,0.3867662485956044,True,True,0.4225495764974228,0.45210059594463564,3,1
control,0.34808962373604396,False,True,0.37097962708799226,0.362222927823203,3,1
control,0.3132806613624396,True,False,0.3880135486178411,0.25573903791182406,3,1
control,0.3446087274986836,True,False,0.5860350929124507,0.33691269819255176,3,1
control,0.37906960024855196,True,True,0.5181092010751996,0.6387072583998922,3,1
control,0.3411626402236968,True,False,0.5084439750537912,0.26638499084541284,3,1
control,0.3752789042460665,True,True,0.49703273934577913,0.5296899593677145,3,1
control,0.3377510138214599,True,True,0.6105178780629825,0.35472036728264156,3,1
control,0.30397591243931393,False,False,0.7041711896796932,0.4366734017986905,3,1
control,0.33437350368324537,True,False,0.4545939046902556,0.42028877818001453,3,1
control,0.36781085405156994,False,False,0.530632489856138,0.4137772970655524,3,1
control,0.40459193945672695,False,False,0.6111439008162833,0.40904432624662107,3,1
control,0.44505113340239966,False,False,0.4547404720647614,0.30826807205847756,3,1
control,0.48955624674263964,True,True,0.5136790581833572,0.5163399853713972,3,1
control,0.4406006220683757,False,False,0.49980502510178837,0.184722538050214,3,1
control,0.4846606842752133,False,False,0.5623292243274733,0.3472759202023195,3,1
control,0.5331267527027347,True,False,0.282928857576478,0.46968321516691786,3,1
control,0.5864394279730082,False,False,0.45868153652031696,0.43587115885945893,3,1
control,0.6450833707703091,False,False,0.5457794619764156,0.6817730605423887,3,1
control,0.70959170784734,False,True,0.4159602730002004,0.6992773541237305,3,1
control,0.638632537062606,False,False,0.5465441249786968,0.4067151730920522,3,1
control,0.7024957907688667,False,True,0.5085785874123896,0.5208619526037034,3,1
control,0.63224621169198,False,False,0.31245428201068837,0.38943726358359465,3,1
control,0.6954708328611781,True,False,0.5963627857683231,0.4965085769173106,3,1
control,0.765017916147296,False,False,0.7192843115901,0.6850588549590854,3,1
control,0.8415197077620257,True,True,0.5903051918164484,0.5952283377858102,3,1
control,0.7573677369858232,True,True,0.42643611348832033,0.6836387350102067,3,1
control,0.6816309632872408,True,True,0.2768414767553462,0.5208977100144611,3,1
control,0.6134678669585167,False,True,0.6168097322232393,0.5864336804814175,3,1
control,0.552121080262665,True,True,0.651347108667586,0.8290670670591207,3,1
control,0.49690897223639857,True,True,0.4597573647878038,0.4406637071744532,3,1
control,0.44721807501275873,False,False,0.4136844456164709,0.34203818361843047,3,1
control,0.49193988251403464,True,True,0.5558036742582473,0.4078085776921613,3,1
control,0.44274589426263117,True,False,0.7160492922213804,0.42511051420540213,3,1
control,0.48702048368889433,True,False,0.44692299313384154,0.33644048424099426,3,1
control,0.5357225320577839,False,False,0.5843119517403694,0.6875581636330728,3,1
control,0.5892947852635623,True,True,0.575313707764024,0.5965555908270108,3,1
control,0.530365306737206,False,True,0.6573986244857323,0.5754502283482179,3,1
control,0.47732877606348545,False,False,0.5001591796115816,0.4064390701070666,3,1
interoceptive,0.4518872476768043,False,False,0.37645918817048285,0.4290631171570342,3,1
interoceptive,0.4970759724444848,False,True,0.6809546474931665,0.48914267556035235,3,1
interoceptive,0.44736837520003636,True,False,0.4183988841349662,0.3487847955988524,3,1
interoceptive,0.49210521272004004,False,False,0.41779656763431144,0.5954237045945926,3,1
interoceptive,0.5413157339920441,True,True,0.4637126275472069,0.3335391554829372,3,1
interoceptive,0.48718416059283975,True,False,0.4109276513737321,0.6012401120864324,3,1
interoceptive,0.5359025766521238,False,False,0.5131175280438245,0.48506943833740035,3,1
interoceptive,0.5894928343173362,True,True,0.38194821548035474,0.6413145976280756,3,1
interoceptive,0.5305435508856027,True,False,0.3656069438792413,0.5570152576049964,3,1
interoceptive,0.583597905974163,False,True,0.7396330029288942,0.3302427298948645,3,1
interoceptive,0.5252381153767467,True,False,0.5266735911220234,0.3813093094911051,3,1
interoceptive,0.5777619269144214,True,False,0.6105753678845003,0.6228593903973666,3,1
interoceptive,0.6355381196058636,True,True,0.28667112133682154,0.5796088751132952,3,1
interoceptive,0.5719843076452773,False,False,0.4534680209471417,0.47246359241014746,3,1
interoceptive,0.6291827384098051,False,True,0.3737628385469026,0.735747516776273,3,1
interoceptive,0.5662644645688246,True,True,0.4158645302690703,0.3064098870590449,3,1
interoceptive,0.5096380181119422,True,False,0.43734271124233665,0.4758130448522402,3,1
interoceptive,0.5606018199231365,True,True,0.5938692643381019,0.6850361483088054,3,1
interoceptive,0.5045416379308229,False,False,0.4852719248503345,0.45425901863674045,3,1
interoceptive,0.5549958017239052,False,True,0.4915163765096552,0.3683400112660855,3,1
interoceptive,0.4994962215515147,False,True,0.49135673146504383,0.4219428716936208,3,1
interoceptive,0.4495465993963632,True,True,0.47721748877742776,0.4409604711684806,3,1
interoceptive,0.4045919394567269,True,True,0.4412561372414801,0.3954963755664236,3,1
interoceptive,0.36413274551105423,True,False,0.31626939348553307,0.16121199075283832,3,1
interoceptive,0.40054602006215967,True,True,0.4701212698451091,0.47455522500362773,3,1
interoceptive,0.3604914180559437,False,False,0.7117373816069394,0.4879749494575266,3,1
interoceptive,0.3965405598615381,True,True,0.40260769097708277,0.23766338519750388,3,1
interoceptive,0.3568865038753843,False,True,0.5375571819774965,0.5224081416724443,3,1
interoceptive,0.32119785348784585,False,False,0.45913681076624796,0.47571826479143675,3,1
interoceptive,0.3533176388366305,True,False,0.42787609006470445,0.4742012189898759,3,1
interoceptive,0.3886494027202936,False,False,0.554183790486868,0.40305456627118713,3,1
interoceptive,0.427514342992323,True,True,0.5033362492042213,0.41915742969327713,3,1
interoceptive,0.3847629086930907,False,False,0.48731033886996755,0.2069357406710907,3,1
interoceptive,0.4232391995623998,True,False,0.5924916923673083,0.3259681621241323,3,1
interoceptive,0.4655631195186398,False,True,0.4141863475556975,0.48197413995163474,3,1
interoceptive,0.41900680756677583,False,False,0.45506422479711545,0.4087523512006983,3,1
interoceptive,0.46090748832345346,True,False,0.5745850605430264,0.29756326204250105,3,1
interoceptive,0.5069982371557988,False,False,0.7364199867552058,0.5532569792027504,3,1
interoceptive,0.5576980608713787,True,False,0.3960534462461036,0.5107869021590583,3,1
interoceptive,0.6134678669585166,True,False,0.44045861048469764,0.6687619786889561,3,1
interoceptive,0.6748146536543683,False,True,0.5637670332642617,0.743231976759309,3,1
interoceptive,0.6073331882889315,False,True,0.38776468065305847,0.6036201872559105,3,1
interoceptive,0.5465998694600384,True,True,0.5316056511525818,0.6801773090977808,3,1
interoceptive,0.49193988251403453,False,True,0.5628807855939575,0.43008374018244333,3,1
interoceptive,0.4427458942626311,True,False,0.5811030980221769,0.3845529062430527,3,1
interoceptive,0.4870204836888943,False,True,0.6033055778665555,0.4558139193701131,3,1
interoceptive,0.43831843532000486,False,True,0.6465086462451601,0.5034906267839945,3,1
interoceptive,0.3944865917880044,True,False,0.7542374052708829,0.43123635539638194,3,1
interoceptive,0.43393525096680485,True,False,0.4942764552881836,0.3784004009257167,3,1
interoceptive,0.4773287760634854,True,True,0.6643097681533394,0.2037506866824666,3,1
exteroceptive,0.4518872476768047,True,False,0.4956185021538299,0.3855699007022244,3,1
exteroceptive,0.4970759724444852,False,True,0.42316381720136464,0.5099696590052568,3,1
exteroceptive,0.4473683752000367,True,True,0.5782127544739812,0.6142068227916735,3,1
exteroceptive,0.402631537680033,False,False,0.5078823123281871,0.4772188085615753,3,1
exteroceptive,0.44289469144803634,False,False,0.42765584170823184,0.3337800801894006,3,1
exteroceptive,0.48718416059284003,False,False,0.631281590566914,0.3669153160023526,3,1
exteroceptive,0.535902576652124,True,True,0.43153905949717114,0.5367957889627516,3,1
exteroceptive,0.4823123189869116,True,False,0.4074568301232243,0.3901267992000187,3,1
exteroceptive,0.5305435508856028,True,True,0.3864182120133516,0.5644547787141351,3,1
exteroceptive,0.4774891957970425,False,False,0.21506769475068693,0.47556996403286933,3,1
exteroceptive,0.5252381153767468,False,False,0.3851163558515164,0.559497602138854,3,1
exteroceptive,0.5777619269144215,False,True,0.3937237232712538,0.6292292334689573,3,1
exteroceptive,0.5199857342229793,False,True,0.44132008747378926,0.633642877759265,3,1
exteroceptive,0.4679871608006814,True,True,0.5536322265843556,0.4012885699139048,3,1
exteroceptive,0.4211884447206133,False,True,0.3487784246190423,0.6244840682351506,3,1
exteroceptive,0.37906960024855196,False,False,0.46385919198717074,0.44767191309105286,3,1
exteroceptive,0.4169765602734072,True,False,0.5786564180671625,0.5521070304091361,3,1
exteroceptive,0.45867421630074795,False,True,0.5481011225241812,0.6204052660473071,3,1
exteroceptive,0.41280679467067316,True,True,0.5711625016458394,0.40761533866387956,3,1
exteroceptive,0.37152611520360584,False,False,0.6698661217475714,0.3634487760491902,3,1
exteroceptive,0.40867872672396643,False,False,0.48133597881302964,0.31805971258007976,3,1
exteroceptive,0.4495465993963631,True,True,0.4587081720301585,0.5141932883996027,3,1
exteroceptive,0.4045919394567268,False,True,0.5197576036027595,0.4789728956392627,3,1
exteroceptive,0.3641327455110541,False,False,0.4066989451243028,0.4307516800330067,3,1
exteroceptive,0.40054602006215956,False,False,0.5997063461052011,0.3796038437949417,3,1
exteroceptive,0.4406006220683755,True,True,0.358506527340409,0.439452768901428,3,1
exteroceptive,0.39654055986153797,False,True,0.3983848579642192,0.4920419946924358,3,1
exteroceptive,0.3568865038753842,True,True,0.5222595885670158,0.41349628435790975,3,1
exteroceptive,0.32119785348784574,False,True,0.4267750483228224,0.29070605593286725,3,1
exteroceptive,0.2890780681390612,False,True,0.64472516012132,0.3785325626780669,3,1
exteroceptive,0.2601702613251551,False,True,0.6009401542664905,0.44211198119031125,3,1
exteroceptive,0.23415323519263959,True,True,0.4118925870140055,0.4062037055619991,3,1
exteroceptive,0.21073791167337563,False,True,0.5702433751694725,0.37359462829106416,3,1
exteroceptive,0.18966412050603806,False,True,0.47942376528460107,0.2686303350456292,3,1
exteroceptive,0.17069770845543425,False,False,0.4828929327678573,0.29431215698069835,3,1
exteroceptive,0.1877674793009777,False,False,0.619093728955327,0.30883036449732226,3,1
exteroceptive,0.2065442272310755,True,False,0.5573811350441251,0.19297931073098956,3,1
exteroceptive,0.22719864995418307,True,True,0.5220763770795906,0.31250597396126734,3,1
exteroceptive,0.20447878495876476,False,False,0.5093911276837665,0.35798128451652245,3,1
exteroceptive,0.22492666345464124,False,False,0.407373987231762,0.3907602933282576,3,1
exteroceptive,0.2474193298001054,False,False,0.476686914024782,0.18882037966887738,3,1
exteroceptive,0.27216126278011593,False,False,0.5576283372518629,0.22645461083947277,3,1
exteroceptive,0.29937738905812755,False,False,0.30987376396008715,0.3221477813337237,3,1
exteroceptive,0.32931512796394036,False,True,0.6159142528153801,0.36586049757103223,3,1
exteroceptive,0.29638361516754635,False,False,0.3708996471819841,0.29310385451710597,3,1
exteroceptive,0.326021976684301,False,True,0.4528913707111785,0.4033501936738326,3,1
exteroceptive,0.2934197790158709,False,True,0.49900615532137704,0.4103321673882104,3,1
exteroceptive,0.2640778011142838,False,False,0.43605448410139597,0.290444450497054,3,1
exteroceptive,0.2904855812257122,True,False,0.47899101030494556,0.47753109668014393,3,1
exteroceptive,0.31953413934828345,False,False,0.4539778662206573,0.27812662435931407,3,1
exteroceptive,0.3514875532831118,False,True,0.5458950664016248,0.5271504453616175,4,1
exteroceptive,0.31633879795480063,True,True,0.5646151754468967,0.40440137693540884,4,1
exteroceptive,0.2847049181593206,True,False,0.4546886106327171,0.06278090359972532,4,1
exteroceptive,0.31317540997525267,False,False,0.27618811007455546,0.39106704296919603,4,1
exteroceptive,0.344492950972778,False,True,0.44825947642675573,0.45462071166968954,4,1
exteroceptive,0.3100436558755002,True,False,0.6057238134757185,0.3719998081255334,4,1
exteroceptive,0.34104802146305024,False,True,0.49915452326882326,0.1778285244100441,4,1
exteroceptive,0.30694321931674523,True,False,0.5600829864463491,0.3660295957244813,4,1
exteroceptive,0.33763754124841977,False,True,0.43871340083623295,0.357647496964905,4,1
exteroceptive,0.3038737871235778,True,False,0.40327187349134164,0.35258621617391284,4,1
exteroceptive,0.3342611658359356,True,True,0.46934642292345496,0.43547229847831553,4,1
exteroceptive,0.30083504925234206,True,False,0.48260625259303175,0.2985046250935497,4,1
exteroceptive,0.33091855417757626,True,False,0.5995427301007359,0.49759108555102327,4,1
exteroceptive,0.36401040959533393,False,True,0.5489576340064449,0.3292938515458109,4,1
exteroceptive,0.32760936863580054,True,True,0.5681554486386456,0.566180847080199,4,1
exteroceptive,0.2948484317722205,False,False,0.6921147616581702,0.25522845321259097,4,1
exteroceptive,0.32433327494944253,True,False,0.44210011045528064,0.25008207965911633,4,1
exteroceptive,0.3567666024443868,False,False,0.5917655873622905,0.3190771640319681,4,1
exteroceptive,0.3924432626888255,False,False,0.6033164314599968,0.36386647796074517,4,1
exteroceptive,0.4316875889577081,True,False,0.4363411842275614,0.559805366076574,4,1
exteroceptive,0.4748563478534789,False,True,0.5991984915565889,0.25815384376149053,4,1
exteroceptive,0.427370713068131,True,True,0.4025681003318945,0.36999784747788134,4,1
exteroceptive,0.3846336417613179,True,True,0.42246371423457946,0.6189458124263009,4,1
exteroceptive,0.34617027758518615,False,False,0.6408745832908173,0.4197725406456981,4,1
exteroceptive,0.3807873053437048,False,True,0.5120332905129787,0.39015237391236746,4,1
exteroceptive,0.3427085748093343,True,False,0.35820071332301096,0.4790406862178487,4,1
exteroceptive,0.37697943229026776,False,False,0.46612969571223944,0.29359090065021176,4,1
exteroceptive,0.41467737551929457,True,True,0.5015080948921544,0.5612591010358323,4,1
exteroceptive,0.3732096379673651,False,False,0.5188760851128719,0.30588175358722597,4,1
exteroceptive,0.41053060176410167,True,False,0.3198374907140815,0.5861738228621084,4,1
exteroceptive,0.45158366194051186,False,True,0.4033032720308852,0.40854187882551823,4,1
exteroceptive,0.4064252957464607,True,False,0.43296685258310386,0.3880742070106848,4,1
exteroceptive,0.4470678253211068,False,True,0.5968824328097813,0.45872394338872097,4,1
exteroceptive,0.4023610427889961,False,True,0.40495636293382853,0.5296489572393863,4,1
exteroceptive,0.3621249385100965,True,False,0.5421290242804291,0.4593631625846335,4,1
exteroceptive,0.39833743236110614,True,False,0.6520817477598371,0.47694210338225357,4,1
exteroceptive,0.4381711755972168,True,False,0.5443201597440738,0.2707483720917858,4,1
exteroceptive,0.48198829315693853,True,False,0.3622379556667539,0.5022767139381655,4,1
exteroceptive,0.5301871224726324,False,True,0.5189682279827715,0.5847828533578006,4,1
exteroceptive,0.4771684102253692,False,False,0.5068278359164076,0.3701636491931684,4,1
exteroceptive,0.5248852512479062,False,True,0.3888409427832927,0.6409835648216932,4,1
exteroceptive,0.47239672612311556,True,False,0.6862576526065818,0.24521797009749302,4,1
exteroceptive,0.5196363987354271,False,False,0.4542151172186381,0.423285464459093,4,1
exteroceptive,0.5716000386089699,False,False,0.5009582490846526,0.6177647429161904,4,1
exteroceptive,0.6287600424698669,True,False,0.552542621717551,0.6384288698724434,4,1
exteroceptive,0.6916360467168537,True,True,0.4999134185519153,0.5304702157388216,4,1
exteroceptive,0.6224724420451684,False,True,0.5168462357322839,0.5235630703434503,4,1
exteroceptive,0.5602251978406516,True,False,0.5397061789567208,0.5930603654330061,4,1
exteroceptive,0.6162477176247169,False,False,0.5892843803538113,0.5165891205284228,4,1
exteroceptive,0.6778724893871886,False,True,0.34558698463872317,0.7110608266407407,4,1
interoceptive,0.42959589845713686,False,False,0.6301793985806827,0.3694465782859061,4,1
interoceptive,0.4725554883028506,True,True,0.430887201116962,0.34008967826853653,4,1
interoceptive,0.42529993947256556,False,False,0.5915225470517899,0.32736450642325854,4,1
interoceptive,0.46782993341982215,False,False,0.34019153030723914,0.6160211231713579,4,1
interoceptive,0.5146129267618044,False,True,0.6168027735632137,0.5792626433219434,4,1
interoceptive,0.46315163408562393,False,True,0.4616657377500863,0.48319574946002314,4,1
interoceptive,0.41683647067706153,True,False,0.43320871937898764,0.3836742621820836,4,1
interoceptive,0.4585201177447677,True,False,0.6086068221210046,0.4463832061873054,4,1
interoceptive,0.5043721295192445,False,True,0.5457527552264202,0.6290933790401418,4,1
interoceptive,0.45393491656732005,False,False,0.5550874978734589,0.5317653706109673,4,1
interoceptive,0.4993284082240521,False,False,0.6066906050892833,0.40458825594340664,4,1
interoceptive,0.5492612490464573,False,True,0.6389975688667677,0.7692623341187099,4,1
interoceptive,0.49433512414181163,False,False,0.5570239338170582,0.5085162268367823,4,1
interoceptive,0.5437686365559928,False,False,0.42681454403821556,0.6032338601218753,4,1
interoceptive,0.5981455002115922,True,True,0.46989062362150646,0.6696659995025872,4,1
interoceptive,0.538330950190433,False,False,0.3374876060847509,0.4890939559171109,4,1
interoceptive,0.5921640452094763,True,False,0.4868263354576419,0.4955540298354376,4,1
interoceptive,0.651380449730424,False,True,0.2683955252261363,0.7809676025151991,4,1
interoceptive,0.5862424047573815,False,True,0.5270064435814668,0.6232640007527157,4,1
interoceptive,0.5276181642816434,True,True,0.5054418654682256,0.642189663975351,4,1
interoceptive,0.4748563478534791,True,False,0.5118286073021647,0.4409878307778504,4,1
interoceptive,0.522341982638827,False,False,0.7202560826811248,0.5185857001139967,4,1
interoceptive,0.5745761809027098,True,True,0.3628714862710223,0.4355959599264875,4,1
interoceptive,0.5171185628124388,True,False,0.505514803249432,0.5599767784644033,4,1
interoceptive,0.5688304190936828,True,False,0.551599545793396,0.6780884207124668,4,1
interoceptive,0.6257134610030511,True,True,0.48071867782252803,0.81795457249015,4,1
interoceptive,0.563142114902746,False,True,0.3871330210767344,0.6280800738091138,4,1
interoceptive,0.5068279034124714,False,False,0.47298418032150064,0.345701218744283,4,1
interoceptive,0.5575106937537186,True,False,0.4527543486658821,0.5039323696785432,4,1
interoceptive,0.6132617631290905,True,True,0.5028638254712011,0.6368561573430448,4,1
interoceptive,0.5519355868161815,True,False,0.5106231210073168,0.51616197755712,4,1
interoceptive,0.6071291454977997,True,False,0.39271100605830456,0.48247579998544177,4,1
interoceptive,0.6678420600475797,False,False,0.6420602667755472,0.6003102028779408,4,1
interoceptive,0.7346262660523377,True,True,0.5427675432788419,0.6747872771290266,4,1
interoceptive,0.661163639447104,False,True,0.6263019619236296,0.6396189581169271,4,1
interoceptive,0.5950472755023936,True,False,0.609732547288801,0.4219745020134532,4,1
interoceptive,0.654552003052633,False,True,0.49279831641452515,0.7487644105897949,4,1
interoceptive,0.5890968027473696,False,True,0.44922031303849763,0.650884793222954,4,1
interoceptive,0.5301871224726327,True,True,0.32844209307304506,0.3660106691453381,4,1
interoceptive,0.47716841022536943,True,True,0.521642106643771,0.2723466130183521,4,1
interoceptive,0.4294515692028325,False,True,0.49928005159335986,0.4098513031129997,4,1
interoceptive,0.3865064122825493,True,False,0.3774894523850898,0.24604199821290804,4,1
interoceptive,0.42515705351080424,False,True,0.4164289269337702,0.5161927145354399,4,1
interoceptive,0.38264134815972384,False,False,0.491621040357068,0.24319860319087028,4,1
interoceptive,0.42090548297569624,True,True,0.3805122178294898,0.5140193764677954,4,1
interoceptive,0.3788149346781266,False,False,0.36064045341665335,0.3521304015598047,4,1
interoceptive,0.4166964281459393,True,False,0.3896642223694448,0.405211852958896,4,1
interoceptive,0.4583660709605333,False,False,0.39815294543341795,0.45360770176290593,4,1
interoceptive,0.5042026780565867,False,False,0.4353729218448688,0.6050920874001767,4,1
interoceptive,0.5546229458622454,True,False,0.664394768598929,0.7433742954667482,4,1
control,0.525061653669834,True,False,0.5732924767378851,0.5775454171072847,4,1
control,0.5775678190368175,False,False,0.4769076933250296,0.5655500281681249,4,1
control,0.6353246009404994,False,False,0.31901232889369113,0.5337892378125065,4,1
control,0.6988570610345494,True,True,0.37509356704045915,0.5435117970231438,4,1
control,0.6289713549310945,True,True,0.4925511631707321,0.5927615967015182,4,1
control,0.5660742194379851,False,False,0.32513861375272557,0.4560526591961631,4,1
control,0.6226816413817836,False,False,0.4381117265778372,0.48923276507850677,4,1
control,0.684949805519962,False,False,0.5444769421203568,0.6220717609704483,4,1
control,0.7534447860719582,False,True,0.3922167145928667,0.7365431953587774,4,1
control,0.6781003074647624,False,True,0.679074046691935,0.48460994958809495,4,1
control,0.6102902767182862,False,False,0.3588246674141333,0.5221162213420182,4,1
control,0.6713193043901149,False,True,0.4394303027306502,0.5512046166377381,4,1
control,0.6041873739511034,True,True,0.7152579456349273,0.5745654213336145,4,1
control,0.5437686365559932,True,True,0.514282011728384,0.4862324580051821,4,1
control,0.4893917729003939,False,False,0.69354079799149,0.6508693368109014,4,1
control,0.5383309501904333,True,False,0.600776928736802,0.531623680548553,4,1
control,0.5921640452094767,False,True,0.7236723679738453,0.45552317712169876,4,1
control,0.5329476406885291,True,False,0.6553625802291625,0.42138037518086696,4,1
control,0.586242404757382,False,False,0.4826729922010465,0.4217024160167631,4,1
control,0.6448666452331202,True,True,0.373461133252328,0.6381433829958412,4,1
control,0.5803799807098082,True,True,0.5980582126931755,0.7324104905334125,4,1
control,0.5223419826388275,False,False,0.47612458159587745,0.5520492369114448,4,1
control,0.5745761809027102,True,True,0.630712275135475,0.5247152623073613,4,1
control,0.5171185628124392,False,False,0.3803915775149991,0.6113176389863515,4,1
control,0.5688304190936831,False,False,0.759779247544756,0.6712770875578167,4,1
control,0.6257134610030515,False,True,0.542097552575194,0.5227017936505173,4,1
control,0.5631421149027463,True,True,0.5665260582006612,0.6250579240617745,4,1
control,0.5068279034124717,True,False,0.5993810274145105,0.60467460990176,4,1
control,0.557510693753719,False,True,0.5268435614725493,0.5832755853814424,4,1
control,0.5017596243783471,False,True,0.5452656822313696,0.6208811054031965,4,1
control,0.4515836619405124,False,True,0.48998442278731236,0.5313186703362046,4,1
control,0.4064252957464612,False,True,0.4440709994750565,0.5652959937366308,4,1
control,0.3657827661718151,False,False,0.5015225999288176,0.43167523601283936,4,1
control,0.40236104278899665,False,True,0.4787602703202058,0.5023515711336043,4,1
control,0.36212493851009697,False,False,0.6078050896330143,0.3321579752816818,4,1
control,0.3983374323611067,True,False,0.5579745498955778,0.2269611936862897,4,1
control,0.4381711755972174,False,False,0.5743164187586633,0.3312612049786835,4,1
control,0.4819882931569392,False,True,0.42340883305182725,0.43952080810684413,4,1
control,0.4337894638412453,False,False,0.42841745285993793,0.3091856632606914,4,1
control,0.4771684102253698,True,True,0.4765677402609148,0.5261140028410833,4,1
control,0.42945156920283284,True,False,0.4847157049699231,0.40876421131059304,4,1
control,0.4723967261231162,True,True,0.5007401996668901,0.5318212623693735,4,1
control,0.4251570535108046,True,True,0.7343092503376696,0.4860181550458446,4,1
control,0.3826413481597241,True,True,0.4399899779319427,0.5514985603596401,4,1
control,0.3443772133437517,True,True,0.4554775006238855,0.4328526357977857,4,1
control,0.30993949200937654,True,True,0.4624369868421935,0.3793464662793123,4,1
control,0.2789455428084389,True,False,0.5374839093024293,0.43067586760330934,4,1
control,0.30684009708928284,True,False,0.5609890778461036,0.252191605928174,4,1
control,0.33752410679821115,True,False,0.5300535158296891,0.43610708961382305,4,1
control,0.3712765174780323,False,True,0.384426505782609,0.4672027962902551,4,1
control,0.33414886573022906,False,False,0.6189990073557777,0.28782161450415844,5,1
control,0.367563752303252,True,True,0.5322672097051867,0.4081744068053643,5,1
control,0.3308073770729268,False,False,0.40565877439976644,0.2642592757080944,5,1
control,0.3638881147802195,True,False,0.46948456646334247,0.4488194944613728,5,1
control,0.40027692625824146,True,True,0.493196248092463,0.3183612318100422,5,1
control,0.36024923363241734,True,True,0.48504708429604365,0.48836544615471744,5,1
control,0.32422431026917564,False,True,0.6577610105997335,0.4727195641371295,5,1
control,0.2918018792422581,False,True,0.48363558078495933,0.46625206380623113,5,1
control,0.2626216913180323,True,False,0.575791518204919,0.272720630582524,5,1
control,0.28888386044983555,True,False,0.3231765908162788,0.3751649369004522,5,1
control,0.3177722464948191,False,False,0.5424602810287111,0.48958401042376726,5,1
control,0.34954947114430107,False,True,0.42322993286529725,0.5117928269739115,5,1
control,0.314594524029871,True,True,0.4084356878793496,0.24361957424297573,5,1
control,0.2831350716268839,False,False,0.4143508173504854,0.36412152393827985,5,1
control,0.31144857878957233,False,False,0.5500785305451912,0.35796139596983495,5,1
control,0.3425934366685296,False,True,0.3401928946953692,0.2053963301642721,5,1
control,0.30833409300167663,False,True,0.5467996224256547,0.21834998569103023,5,1
control,0.277500683701509,True,False,0.3410508245232449,0.24584037680981474,5,1
control,0.3052507520716599,False,False,0.5413571569497526,0.36679770719115945,5,1
control,0.33577582727882593,True,True,0.4638495267840752,0.37128663927112554,5,1
control,0.30219824455094335,False,True,0.373431572105387,0.3517395045320161,5,1
control,0.27197842009584905,True,True,0.5388311610259495,0.42641010183676464,5,1
control,0.24478057808626416,False,False,0.44684989730043967,0.26252037046462945,5,1
control,0.2692586358948906,False,False,0.1960986228572668,0.33683621287790566,5,1
control,0.29618449948437964,True,False,0.361132320524184,0.49982288510059536,5,1
control,0.3258029494328176,False,False,0.33766303625859917,0.31224251596016617,5,1
control,0.3583832443760994,True,False,0.3207600513609006,0.43790021864512996,5,1
control,0.3942215688137094,False,False,0.4931214193593133,0.5171426435937372,5,1
control,0.43364372569508036,False,True,0.575458557457275,0.5528664087217168,5,1
control,0.3902793531255723,True,True,0.6367216987081117,0.4344305194603257,5,1
control,0.3512514178130151,False,False,0.52025408657876,0.3207657631712897,5,1
control,0.38637655959431666,True,True,0.4853256935842235,0.3750835881240763,5,1
control,0.347738903634885,False,False,0.4618053384812432,0.49038504703969227,5,1
control,0.38251279399837357,True,False,0.601700763423561,0.40769910331913634,5,1
control,0.420764073398211,True,True,0.7534940403991333,0.5584372379418867,5,1
control,0.3786876660583899,False,True,0.4636121830021068,0.33487212830048607,5,1
control,0.3408188994525509,False,False,0.6323461768714026,0.3149906845721337,5,1
control,0.374900789397806,False,False,0.515958365042579,0.45029720454223326,5,1
control,0.41239086833758665,False,True,0.4012084602880862,0.40333149387005335,5,1
control,0.371151781503828,True,True,0.5212882983443162,0.514973563215111,5,1
control,0.3340366033534452,True,False,0.49164604816739665,0.375688959219751,5,1
control,0.36744026368878974,True,True,0.5700406542946969,0.34605833415604537,5,1
control,0.33069623731991077,True,False,0.47685350692569173,0.24163053932490583,5,1
control,0.3637658610519019,False,True,0.5087387385962825,0.5814439988961642,5,1
control,0.3273892749467117,True,False,0.4039841898271701,0.236292186598021,5,1
control,0.36012820244138294,False,False,0.4984178255603356,0.3592017070052224,5,1
control,0.39614102268552126,False,False,0.5277211646986648,0.30695117779821,5,1
control,0.4357551249540734,True,True,0.6286412791317384,0.3871181441879337,5,1
control,0.3921796124586661,False,False,0.5522766937931056,0.4733891683489895,5,1
control,0.43139757370453274,True,False,0.5646894417616054,0.41709345007870263,5,1
interoceptive,0.6100852404484699,False,True,0.35324812759401225,0.5656074911054944,5,1
interoceptive,0.5490767164036229,True,True,0.5630202130034005,0.6182433452772996,5,1
interoceptive,0.4941690447632606,False,False,0.5026485848018252,0.32519092498496294,5,1
interoceptive,0.5435859492395867,True,False,0.4846007139829307,0.44086577377224884,5,1
interoceptive,0.5979445441635454,True,True,0.6362234530842914,0.5218073137317149,5,1
interoceptive,0.5381500897471908,False,True,0.31380204710624077,0.5070039538579106,5,1
interoceptive,0.4843350807724717,True,False,0.4384573228028265,0.3547272652804263,5,1
interoceptive,0.5327685888497189,False,True,0.7092551300099127,0.5456280981472827,5,1
interoceptive,0.47949172996474704,True,False,0.4194614772344761,0.46977165161321227,5,1
interoceptive,0.5274409029612218,True,True,0.45629540655765677,0.61331446788148,5,1
interoceptive,0.47469681266509967,True,False,0.47021859199544314,0.647569446737266,5,1
interoceptive,0.5221664939316096,False,False,0.5359340519664518,0.6472112785419465,5,1
interoceptive,0.5743831433247707,True,False,0.5462517251596128,0.5893648236252472,5,1
interoceptive,0.6318214576572478,False,False,0.4693381518318908,0.6325990010436539,5,1
interoceptive,0.6950036034229727,True,True,0.46032441127306484,0.7414137099252179,5,1
interoceptive,0.6255032430806755,False,False,0.4017123780904507,0.7343695509099786,5,1
interoceptive,0.6880535673887431,False,False,0.49150967512439797,0.9237072914500177,5,1
interoceptive,0.7568589241276175,True,True,0.4332037652472247,0.5722601208733007,5,1
interoceptive,0.6811730317148558,False,False,0.46426782360196117,0.6934055065887661,5,1
interoceptive,0.7492903348863414,False,False,0.3689926360718271,0.7740525244700045,5,1
interoceptive,0.8242193683749757,False,True,0.39563072415650474,0.8042511197114003,5,1
interoceptive,0.7417974315374781,True,False,0.33754791619619096,0.6036986650875507,5,1
interoceptive,0.815977174691226,False,True,0.6229559860186239,0.8959271485690476,5,1
interoceptive,0.7343794572221034,False,True,0.47055845482304237,0.8010646824993625,5,1
interoceptive,0.6609415114998931,True,True,0.6312531672097957,0.6919619898579695,5,1
interoceptive,0.5948473603499038,False,True,0.41480555866844604,0.6561149067007569,5,1
interoceptive,0.5353626243149134,False,False,0.4085455520906692,0.6249116135562742,5,1
interoceptive,0.5888988867464048,True,True,0.4838643761168274,0.5386989600177681,5,1
interoceptive,0.5300089980717643,True,False,0.3794504482605262,0.41842519845931747,5,1
interoceptive,0.5830098978789408,False,True,0.3422473636227322,0.5608935610334866,5,1
interoceptive,0.5247089080910466,False,False,0.6239969791023303,0.692781524918226,5,1
interoceptive,0.5771797989001514,True,True,0.5805992847776325,0.688213261534292,5,1
interoceptive,0.5194618190101362,False,True,0.23257031326630012,0.7511671943315689,5,1
interoceptive,0.4675156371091226,False,False,0.4779151153873706,0.5447078310271531,5,1
interoceptive,0.5142672008200349,False,True,0.4770304043355294,0.5924453405732962,5,1
interoceptive,0.46284048073803136,False,True,0.5068933320422322,0.3875333418483857,5,1
interoceptive,0.4165564326642282,False,False,0.6206416716403057,0.338202014432345,5,1
interoceptive,0.45821207593065105,True,False,0.481809851173478,0.4724907516208995,5,1
interoceptive,0.5040332835237162,True,True,0.475378465510204,0.3934488296456917,5,1
interoceptive,0.45362995517134463,False,True,0.42259978266970477,0.8459470175521049,5,1
interoceptive,0.40826695965421017,True,False,0.5185154434104805,0.46194379547989817,5,1
interoceptive,0.4490936556196312,True,False,0.5356664196569967,0.2864900185436476,5,1
interoceptive,0.4940030211815944,True,False,0.4311148148479952,0.3570358506028688,5,1
interoceptive,0.5434033232997538,True,True,0.5951766294676891,0.47506804549443227,5,1
interoceptive,0.48906299096977845,True,False,0.46698119697280494,0.42471352864506645,5,1
interoceptive,0.5379692900667563,True,False,0.511308009441687,0.25632678516440915,5,1
interoceptive,0.591766219073432,False,True,0.563079795072566,0.8021066035671485,5,1
interoceptive,0.5325895971660888,True,False,0.49062154221353066,0.5275553051507738,5,1
interoceptive,0.5858485568826977,False,False,0.40680003859663066,0.4073380064571871,5,1
interoceptive,0.6444334125709674,True,False,0.369165638177704,0.6386129857329409,5,1
exteroceptive,0.6100852404484698,True,False,0.4807915154200117,0.5000799944844405,5,1
exteroceptive,0.6710937644933168,False,True,0.6106970115780348,0.7021601325651294,5,1
exteroceptive,0.6039843880439851,False,True,0.4406420070738248,0.5325149869649132,5,1
exteroceptive,0.5435859492395866,False,True,0.3328731603022316,0.42297666016817226,5,1
exteroceptive,0.4892273543156279,True,True,0.4947560342450382,0.576956266040981,5,1
exteroceptive,0.44030461888406514,True,True,0.753081671701118,0.5650118528523458,5,1
exteroceptive,0.39627415699565866,True,True,0.5167940278804101,0.4716627314047971,5,1
exteroceptive,0.3566467412960928,False,False,0.6083842709107499,0.31957188629022276,5,1
exteroceptive,0.39231141542570214,False,False,0.4167293508442906,0.4223979638270576,5,1
exteroceptive,0.4315425569682724,False,True,0.493229585983484,0.5663318267794251,5,1
exteroceptive,0.38838830127144514,False,True,0.47119871721135753,0.4651745164885803,5,1
exteroceptive,0.3495494711443006,True,True,0.5234734790192953,0.28321150301738274,5,1
exteroceptive,0.3145945240298706,True,True,0.5408004718747809,0.3303457213687462,5,1
exteroceptive,0.28313507162688356,False,True,0.5025876980493308,0.27789871036136665,5,1
exteroceptive,0.25482156446419524,True,False,0.4133635311973296,0.34893938052509876,5,1
exteroceptive,0.2803037209106148,False,False,0.5747714964308175,0.33066876958033753,5,1
exteroceptive,0.3083340930016763,True,True,0.43612164149447025,0.32657110001064793,5,1
exteroceptive,0.27750068370150865,True,False,0.44042210180280233,0.20115718478629854,5,1
exteroceptive,0.3052507520716595,False,True,0.5217710278294639,0.22904672793449088,5,1
exteroceptive,0.27472567686449356,True,True,0.4854315609089467,0.2850698276057405,5,1
exteroceptive,0.24725310917804422,True,True,0.6987928986489541,0.5357608453531213,5,1
exteroceptive,0.2225277982602398,True,False,0.4746436317649426,0.03993998093556583,5,1
exteroceptive,0.2447805780862638,True,False,0.4102189092343623,0.3746674199004323,5,1
exteroceptive,0.2692586358948902,True,True,0.33905668299001757,0.2818626027405998,5,1
exteroceptive,0.24233277230540118,True,True,0.5750748583569243,0.25358431229152145,5,1
exteroceptive,0.21809949507486107,True,True,0.5838106718473904,0.5258158254129053,5,1
exteroceptive,0.19628954556737496,False,False,0.5832854566786678,0.09848475406324683,5,1
exteroceptive,0.21591850012411248,False,False,0.5478103090355957,0.36333742597617746,5,1
exteroceptive,0.23751035013652375,False,True,0.6640086548357393,0.34125735190420486,5,1
exteroceptive,0.21375931512287139,False,True,0.5153689671068075,0.3442461607368606,5,1
exteroceptive,0.19238338361058424,False,False,0.4370046212734954,0.34433713008916605,5,1
exteroceptive,0.2116217219716427,True,False,0.39959755490590915,0.17131586187503334,5,1
exteroceptive,0.232783894168807,True,False,0.5738571891978455,0.3651421368786697,5,1
exteroceptive,0.2560622835856877,False,True,0.45950494332097425,0.15577380903234614,5,1
exteroceptive,0.23045605522711896,True,False,0.3794747756504864,0.2556580421653515,5,1
exteroceptive,0.2535016607498309,False,True,0.5455941262682399,0.326804944015252,5,1
exteroceptive,0.2281514946748478,True,False,0.6666748526033178,0.31904186209511926,5,1
exteroceptive,0.2509666441423326,True,False,0.5007552196860068,0.4350170864939732,5,1
exteroceptive,0.2760633085565659,False,False,0.4090005426516438,0.37682028426268593,5,1
exteroceptive,0.3036696394122225,False,False,0.4078544603045891,0.23844846218301693,5,1
exteroceptive,0.3340366033534448,False,True,0.3422133918385909,0.4133601100764337,5,1
exteroceptive,0.30063294301810034,True,False,0.3632541770692286,0.46875136863368483,5,1
exteroceptive,0.3306962373199104,True,False,0.6386008027291388,0.26716970946938234,5,1
exteroceptive,0.36376586105190145,False,False,0.623998681808443,0.45675093839111364,5,1
exteroceptive,0.40014244715709163,True,True,0.5578882946043162,0.5551556073721392,5,1
exteroceptive,0.3601282024413825,False,False,0.41777271541137273,0.37115626113446004,5,1
exteroceptive,0.39614102268552076,True,True,0.5024989899356588,0.44637259699340814,5,1
exteroceptive,0.3565269204169687,True,True,0.5372456252808928,0.45971266941590916,5,1
exteroceptive,0.32087422837527185,False,True,0.44901957452459446,0.4120584662405245,5,1
exteroceptive,0.28878680553774466,True,False,0.590472006363797,0.3826478801524305,5,1
interoceptive,0.7088767538280643,True,True,0.32053887126263914,0.7769945653270818,6,1
interoceptive,0.6379890784452579,False,False,0.518308582392661,0.5916565113935622,6,1
interoceptive,0.7017879862897837,False,False,0.6095790708223785,0.7150153654413408,6,1
interoceptive,0.7719667849187621,False,True,0.7212849736228835,0.7366716892707104,6,1
interoceptive,0.694770106426886,False,True,0.7515797897994267,0.7004411567118912,6,1
interoceptive,0.6252930957841973,True,True,0.5571892463934512,0.691526475946886,6,1
interoceptive,0.5627637862057776,False,False,0.6455443531418879,0.35859903982718766,6,1
interoceptive,0.6190401648263554,True,False,0.31263434931023504,0.6172751633166839,6,1
interoceptive,0.6809441813089909,True,False,0.5377526966772163,0.6074105459537323,6,1
interoceptive,0.74903859943989,True,True,0.5246818953883529,0.8849914646436209,6,1
interoceptive,0.6741347394959011,True,True,0.5990394710903995,0.6308247788886548,6,1
interoceptive,0.606721265546311,False,True,0.40692244899301944,0.6515199496810252,6,1
interoceptive,0.54604913899168,False,False,0.4728839781432079,0.6305102862344654,6,1
interoceptive,0.600654052890848,True,False,0.34798572804464206,0.6866456415570221,6,1
interoceptive,0.6607194581799328,False,True,0.7028111158378031,0.6294668513829431,6,1
interoceptive,0.5946475123619396,False,True,0.6318837451878062,0.7599420519779827,6,1
interoceptive,0.5351827611257456,False,True,0.3390218321405931,0.7415163312918059,6,1
interoceptive,0.48166448501317105,False,True,0.34192764534858294,0.4811542321371042,6,1
interoceptive,0.433498036511854,True,False,0.41810593799053125,0.37446923241048474,6,1
interoceptive,0.47684784016303944,True,False,0.5140643379252391,0.4678187928209148,6,1
interoceptive,0.5245326241793434,False,True,0.48424347051827543,0.506920302849394,6,1
interoceptive,0.4720793617614091,True,False,0.6472785406537751,0.45219705563777246,6,1
interoceptive,0.51928729793755,True,True,0.6480137012346103,0.6320234293806313,6,1
interoceptive,0.467358568143795,True,False,0.6590438548643633,0.37457441058233387,6,1
interoceptive,0.5140944249581746,False,False,0.45439423102335486,0.5202588111864144,6,1
interoceptive,0.5655038674539921,False,True,0.2998739703175172,0.5465546717197534,6,1
interoceptive,0.5089534807085929,True,False,0.3782039533847755,0.5496857514667347,6,1
interoceptive,0.5598488287794523,False,False,0.4851685817301702,0.4554244992136434,6,1
interoceptive,0.6158337116573975,False,False,0.32888672376429584,0.6333501506191435,6,1
interoceptive,0.6774170828231373,True,True,0.7112534113470196,0.6300915104417484,6,1
interoceptive,0.6096753745408235,True,True,0.6596432994358261,0.6302215971131941,6,1
interoceptive,0.5487078370867412,True,True,0.3730516285420413,0.4723906872028489,6,1
interoceptive,0.4938370533780671,True,True,0.5765901672067392,0.46513035924333346,6,1
interoceptive,0.4444533480402604,False,True,0.5117822395689815,0.366772247371811,6,1
interoceptive,0.40000801323623436,True,True,0.4756966914602733,0.6120226372362786,6,1
interoceptive,0.3600072119126109,False,True,0.4972239523980953,0.3320752967295391,6,1
interoceptive,0.32400649072134985,True,False,0.5260409061297288,0.27538984153148593,6,1
interoceptive,0.3564071397934849,True,False,0.30649726786964543,0.28517094565266476,6,1
interoceptive,0.3920478537728334,True,False,0.4582481757523281,0.20727707574580215,6,1
interoceptive,0.4312526391501168,True,False,0.574556964877235,0.39568105129094244,6,1
interoceptive,0.4743779030651285,True,False,0.5192617910322567,0.4254758765873422,6,1
interoceptive,0.5218156933716414,False,True,0.6527055594626057,0.681744099947394,6,1
interoceptive,0.46963412403447724,False,True,0.6082640713974506,0.37209331121647754,6,1
interoceptive,0.42267071163102954,True,True,0.44198469178946576,0.521412990295434,6,1
interoceptive,0.3804036404679266,False,True,0.6557059808999093,0.4450763575867325,6,1
interoceptive,0.3423632764211339,False,False,0.6424518969855422,0.2117728251429581,6,1
interoceptive,0.37659960406324733,False,False,0.6100916234840481,0.24713339537104884,6,1
interoceptive,0.4142595644695721,True,False,0.45904884216137276,0.32825184386426803,6,1
interoceptive,0.4556855209165293,False,True,0.48481077468202144,0.3847628103702642,6,1
interoceptive,0.41011696882487636,False,False,0.4404496566577805,0.49745119057121756,6,1
control,0.4745373310749861,False,False,0.46445295626103406,0.4260436676509566,6,1
control,0.5219910641824848,False,False,0.6981247318247935,0.46231924907370747,6,1
control,0.5741901706007333,False,False,0.4933831858382855,0.5018710049788356,6,1
control,0.6316091876608066,False,True,0.6043125941027743,0.6407162127754054,6,1
control,0.568448268894726,True,False,0.34671828046171066,0.3391601907151598,6,1
control,0.6252930957841987,True,True,0.3976799160008767,0.5729287997214967,6,1
control,0.5627637862057788,True,True,0.46271624928905825,0.6338455536566024,6,1
control,0.5064874075852009,True,True,0.3478220369141981,0.39011189875654834,6,1
control,0.45583866682668084,True,True,0.508566362455915,0.5337593638273328,6,1
control,0.4102548001440128,True,False,0.4846152435964478,0.419363528930423,6,1
control,0.4512802801584141,False,True,0.54718420414082,0.4675590621157721,6,1
control,0.40615225214257267,True,False,0.6073152776930386,0.5345725419533077,6,1
control,0.44676747735683,True,True,0.503830314279363,0.5830709485318019,6,1
control,0.402090729621147,True,False,0.6653601767471671,0.3170309072970962,6,1
control,0.44229980258326174,False,False,0.6906810999192312,0.42565757235805773,6,1
control,0.48652978284158793,False,True,0.4501396597055081,0.768926416433297,6,1
control,0.43787680455742917,False,True,0.5203183628816082,0.37133747867486466,6,1
control,0.3940891241016863,True,False,0.37579652668590446,0.4474541965198324,6,1
control,0.4334980365118549,True,True,0.4683893181211599,0.3871928229284247,6,1
control,0.39014823286066946,True,True,0.7058931149821838,0.37934271887223575,6,1
control,0.35113340957460254,False,False,0.6428733468136225,0.2362618039883841,6,1
control,0.3862467505320628,False,False,0.6602826310826767,0.40803570423119273,6,1
control,0.42487142558526914,False,False,0.4594881510456639,0.27746494112519976,6,1
control,0.46735856814379606,True,False,0.46589378262191894,0.4600308851790673,6,1
control,0.5140944249581757,False,True,0.5102669400908643,0.4187403560679501,6,1
control,0.4626849824623581,False,True,0.33247473330830046,0.589959017316702,6,1
control,0.4164164842161223,True,True,0.40377211358956305,0.5042259136467531,6,1
control,0.3747748357945101,True,True,0.4790031730863658,0.4058117186602376,6,1
control,0.3372973522150591,True,False,0.37087384270665386,0.1387977660209609,6,1
control,0.37102708743656504,True,False,0.4764758855935497,0.5243274118200144,6,1
control,0.40812979618022155,False,True,0.25139655674688716,0.5675323771433778,6,1
control,0.3673168165621994,True,False,0.7545081752990435,0.4449782738863335,6,1
control,0.40404849821841937,True,False,0.6410414088077703,0.29091122680499093,6,1
control,0.4444533480402613,False,False,0.5756176259596147,0.5700021291524772,6,1
control,0.4888986828442875,True,True,0.5615877446956804,0.46979897864816544,6,1
control,0.44000881455985874,True,False,0.5736791330208821,0.37836269034341014,6,1
control,0.48400969601584465,False,True,0.6513740488275127,0.4906909133917374,6,1
control,0.4356087264142602,True,False,0.5102471255717419,0.6733733593809133,6,1
control,0.47916959905568624,True,False,0.6926701758591537,0.71127333398965,6,1
control,0.5270865589612549,False,True,0.5241981643680251,0.6376737577126941,6,1
control,0.4743779030651294,True,False,0.55354322659511,0.576253715809897,6,1
control,0.5218156933716424,False,False,0.5444342879553031,0.5040264430757171,6,1
control,0.5739972627088067,True,True,0.47660336074426407,0.7009025278820996,6,1
control,0.516597536437926,True,True,0.3713140549029753,0.4077911030982494,6,1
control,0.46493778279413345,False,False,0.563046504769122,0.5193778796627959,6,1
control,0.5114315610735468,False,True,0.3293031426515513,0.7111634652014325,6,1
control,0.46028840496619217,True,True,0.27616649526775244,0.3435012709668439,6,1
control,0.41425956446957296,True,True,0.24694247178838247,0.5578478894368595,6,1
control,0.37283360802261567,False,False,0.4568897377962286,0.32180081122236753,6,1
control,0.41011696882487725,True,False,0.3907304663904527,0.41185538607772915,6,1
exteroceptive,0.3176654860915192,False,False,0.36079436273803084,0.38295319264892663,6,1
exteroceptive,0.34943203470067113,True,False,0.5006506280306559,0.35917974420479776,6,1
exteroceptive,0.38437523817073826,True,False,0.45912503727538123,0.4125974508438401,6,1
exteroceptive,0.42281276198781215,False,False,0.4899478153482378,0.628399078673988,6,1
exteroceptive,0.4650940381865934,False,False,0.45876789038847665,0.2620638628314527,6,1
exteroceptive,0.5116034420052528,True,False,0.5822960566814733,0.49342476176890865,6,1
exteroceptive,0.562763786205778,False,True,0.544325287128516,0.5414399837620352,6,1
exteroceptive,0.5064874075852003,True,False,0.2843994683399711,0.3947587348461019,6,1
exteroceptive,0.5571361483437204,False,False,0.6525646075239087,0.6245845223263766,6,1
exteroceptive,0.6128497631780925,True,True,0.45958639590369177,0.5816367963623091,6,1
exteroceptive,0.5515647868602832,True,False,0.45482796909126394,0.3976727337755683,6,1
exteroceptive,0.6067212655463116,False,True,0.48512548531726163,0.781292335288517,6,1
exteroceptive,0.5460491389916804,True,True,0.4533591819449295,0.5581902701482556,6,1
exteroceptive,0.49144422509251234,False,True,0.6144524549166349,0.3631416927446346,6,1
exteroceptive,0.4422998025832611,False,False,0.5483230019112723,0.396272181522277,6,1
exteroceptive,0.48652978284158727,True,True,0.4940989762314579,0.3427995836004511,6,1
exteroceptive,0.43787680455742856,True,False,0.6178737514836625,0.4289329340800043,6,1
exteroceptive,0.48166448501317144,False,False,0.4922198989272085,0.5300657840783382,6,1
exteroceptive,0.5298309335144886,True,True,0.7279348880976881,0.49819512863854315,6,1
exteroceptive,0.47684784016303977,True,True,0.4176492006269157,0.5420443382288166,6,1
exteroceptive,0.4291630561467358,False,True,0.602592055276013,0.47004338066715406,6,1
exteroceptive,0.3862467505320622,True,True,0.5557545625918112,0.34736806251239966,6,1
exteroceptive,0.347622075478856,False,True,0.517013017964112,0.28169698881695227,6,1
exteroceptive,0.31285986793097037,True,False,0.36860190079505384,0.23477798546455264,6,1
exteroceptive,0.34414585472406745,True,True,0.3712129694768661,0.26637454117550646,6,1
exteroceptive,0.3097312692516607,True,True,0.3985243060582769,0.4649042312548424,6,1
exteroceptive,0.27875814232649465,True,True,0.6722526235562886,0.4233105907457926,6,1
exteroceptive,0.2508823280938452,False,True,0.4249688882470748,0.3849737269489621,6,1
exteroceptive,0.22579409528446068,False,False,0.5451502085574343,0.31721260566740994,6,1
exteroceptive,0.24837350481290676,False,False,0.5110738194987968,0.3854338887156344,6,1
exteroceptive,0.2732108552941975,True,True,0.6183596661718798,0.2872775296591186,6,1
exteroceptive,0.24588976976477772,True,False,0.5783371810985918,0.3036144655139414,6,1
exteroceptive,0.2704787467412555,True,True,0.33408221055615805,0.13593244569623994,6,1
exteroceptive,0.24343087206712996,False,False,0.4894714155616583,0.25818061185509145,6,1
exteroceptive,0.26777395927384295,True,False,0.6552587227598167,0.2793450210009789,6,1
exteroceptive,0.29455135520122727,False,False,0.403528309296471,0.31601108648420817,6,1
exteroceptive,0.32400649072135,False,False,0.36218589359247466,0.24157176507197758,6,1
exteroceptive,0.35640713979348504,False,True,0.5113528218617944,0.4757401133023578,6,1
exteroceptive,0.32076642581413656,False,False,0.3183312988259146,0.2543083603090374,6,1
exteroceptive,0.35284306839555024,True,True,0.5720772809687228,0.5830517138946404,6,1
exteroceptive,0.3175587615559952,False,False,0.6143236088806198,0.42167310308739114,6,1
exteroceptive,0.34931463771159477,False,False,0.5402180566621693,0.30255552664637486,6,1
exteroceptive,0.3842461014827543,False,False,0.5157785309670954,0.5283107991761928,6,1
exteroceptive,0.42267071163102976,True,False,0.6239363979343896,0.6251248579103618,6,1
exteroceptive,0.4649377827941328,True,True,0.447765077181268,0.4103650798554575,6,1
exteroceptive,0.4184440045147195,True,True,0.4222607703042276,0.5729350023428945,6,1
exteroceptive,0.3765996040632476,False,False,0.566966470427192,0.5577603141449969,6,1
exteroceptive,0.4142595644695724,False,False,0.4217168382722347,0.3033644904918139,6,1
exteroceptive,0.4556855209165297,True,False,0.4073507296,0.3451212581632597,6,1
exteroceptive,0.5012540730081827,True,True,0.39849495596570295,0.4887949043076778,6,1
interoceptive,0.45112866570736404,True,True,0.6216910943466736,0.3335057224868458,7,1
interoceptive,0.40601579913662766,False,False,0.38182739643555724,0.4016720234953572,7,1
interoceptive,0.4466173790502905,False,False,0.6040972575699726,0.3303400509456099,7,1
interoceptive,0.49127911695531956,False,False,0.56179338847855,0.4930964930457872,7,1
interoceptive,0.5404070286508516,False,False,0.5467430698173332,0.6163307300139764,7,1
interoceptive,0.5944477315159368,True,False,0.49483979219593716,0.4874169629323503,7,1
interoceptive,0.6538925046675305,True,True,0.6701697494125137,0.7079676580357789,7,1
interoceptive,0.5885032542007774,True,True,0.5205471211990569,0.5638847885482259,7,1
interoceptive,0.5296529287806997,True,True,0.46220771817343664,0.6197465942616699,7,1
interoceptive,0.47668763590262975,True,True,0.6007192829768104,0.43087080488851937,7,1
interoceptive,0.4290188723123668,True,True,0.6925652694763078,0.4049377331916076,7,1
interoceptive,0.3861169850811301,False,False,0.5505248439014166,0.26638233439516257,7,1
interoceptive,0.42472868358924315,True,False,0.4606580318204898,0.428291458149443,7,1
interoceptive,0.4672015519481675,True,False,0.29980642268615365,0.2556037999366398,7,1
interoceptive,0.5139217071429842,False,True,0.4082140606224814,0.5845617150023827,7,1
interoceptive,0.46252953642868583,True,True,0.619118885158422,0.700688169408793,7,1
interoceptive,0.41627658278581725,True,False,0.33910966983532626,0.5311338613182712,7,1
interoceptive,0.45790424106439903,True,False,0.5614929783285484,0.4150946701207384,7,1
interoceptive,0.5036946651708389,False,False,0.38889576891487315,0.3979345209770491,7,1
interoceptive,0.5540641316879229,False,False,0.546571806656302,0.56382088158635,7,1
interoceptive,0.6094705448567153,False,True,0.49856659277953225,0.6002851317855448,7,1
interoceptive,0.5485234903710438,False,True,0.47887999012216237,0.6333943394137411,7,1
interoceptive,0.4936711413339394,True,False,0.5459587696361068,0.6673663742763194,7,1
interoceptive,0.5430382554673334,True,True,0.5134398241932573,0.4221448886752699,7,1
interoceptive,0.48873442992060007,True,True,0.5474907152079496,0.5557550702382807,7,1
interoceptive,0.4398609869285401,True,True,0.2585896593162604,0.5821684853346503,7,1
interoceptive,0.39587488823568606,False,True,0.5286312576340608,0.31371894249452753,7,1
interoceptive,0.35628739941211746,True,True,0.4786510127115851,0.22750216810982676,7,1
interoceptive,0.3206586594709057,True,False,0.6514787678043555,0.2530492214370058,7,1
interoceptive,0.3527245254179963,True,False,0.5591846962465351,0.2765891290612211,7,1
interoceptive,0.387996977959796,False,False,0.5692335923242904,0.3230581798979062,7,1
interoceptive,0.4267966757557756,False,True,0.3797796032237784,0.3959880693285936,7,1
interoceptive,0.38411700818019806,False,False,0.441526292003047,0.4757574580053268,7,1
interoceptive,0.42252870899821793,False,False,0.4893797668939731,0.3511371323476869,7,1
interoceptive,0.46478157989803975,False,True,0.432569637182769,0.5980650025336804,7,1
interoceptive,0.4183034219082358,False,False,0.6754097586781139,0.39300528598211415,7,1
interoceptive,0.4601337640990594,True,False,0.5256373572807745,0.4553434410135574,7,1
interoceptive,0.5061471405089654,False,False,0.5677364166615669,0.513135277841912,7,1
interoceptive,0.5567618545598619,True,True,0.45113356581837555,0.6197016914974828,7,1
interoceptive,0.5010856691038758,True,False,0.49150085144524,0.324212253394508,7,1
interoceptive,0.5511942360142634,True,True,0.44472848816538124,0.6274318424421204,7,1
interoceptive,0.4960748124128371,True,False,0.4779035954323236,0.38944358666106316,7,1
interoceptive,0.5456822936541208,False,True,0.42133921108366496,0.46594952923536337,7,1
interoceptive,0.49111406428870874,False,False,0.4558363634394714,0.5317219885421522,7,1
interoceptive,0.5402254707175796,False,False,0.6032381901753803,0.5619485680420617,7,1
interoceptive,0.5942480177893377,True,False,0.40825486267275285,0.8370584421279246,7,1
interoceptive,0.6536728195682715,False,True,0.5084303073787316,0.6617550830237897,7,1
interoceptive,0.5883055376114443,False,True,0.39927090258684794,0.713707513687776,7,1
interoceptive,0.5294749838502999,False,True,0.3410958223183538,0.5412376848782536,7,1
interoceptive,0.4765274854652699,False,True,0.46307849336817364,0.4662277259281469,7,1
exteroceptive,0.45112866570736443,False,False,0.430597654054797,0.3833394716729431,7,1
exteroceptive,0.4962415322781009,True,False,0.5635302450218025,0.5459211001963165,7,1
exteroceptive,0.5458656855059111,False,False,0.48606033753634353,0.5179059669309893,7,1
exteroceptive,0.6004522540565023,True,True,0.687351677625829,0.5411853576121207,7,1
exteroceptive,0.5404070286508521,True,True,0.5301480876558483,0.6399054606638694,7,1
exteroceptive,0.4863663257857669,True,False,0.6189674100209348,0.5060022927397616,7,1
exteroceptive,0.5350029583643436,True,True,0.6396480988652222,0.6892958177282139,7,1
exteroceptive,0.4815026625279093,True,True,0.4733020261125758,0.5691225098339853,7,1
exteroceptive,0.4333523962751184,False,True,0.5404991706155412,0.5283254932812413,7,1
exteroceptive,0.39001715664760656,False,False,0.5768658891038296,0.555178480153047,7,1
exteroceptive,0.42901887231236724,False,True,0.5732362113333319,0.44708980758185396,7,1
exteroceptive,0.3861169850811305,False,True,0.4535889887688321,0.5497378683238943,7,1
exteroceptive,0.3475052865730175,False,False,0.5848238979832352,0.36007602576480474,7,1
exteroceptive,0.38225581523031926,False,False,0.5376303747321873,0.3618180589226617,7,1
exteroceptive,0.4204813967533512,False,True,0.6418160818479964,0.5645250617980051,7,1
exteroceptive,0.3784332570780161,False,True,0.43079206003004705,0.41091799825398456,7,1
exteroceptive,0.34058993137021454,True,False,0.2730783452255082,0.3332429864682124,7,1
exteroceptive,0.374648924507236,True,True,0.39412407911191427,0.42716598406953327,7,1
exteroceptive,0.33718403205651243,False,False,0.42193512092972685,0.2704669797466649,7,1
exteroceptive,0.3709024352621637,False,False,0.5177437276472855,0.27434148734713704,7,1
exteroceptive,0.40799267878838014,True,True,0.6228618022098333,0.4566731321599822,7,1
exteroceptive,0.3671934109095421,True,False,0.24344434292912248,0.25017648244246965,7,1
exteroceptive,0.40391275200049637,True,True,0.6372742287737935,0.6898700861682845,7,1
exteroceptive,0.3635214768004467,False,False,0.5746338849212076,0.2826330493516524,7,1
exteroceptive,0.3998736244804914,True,True,0.4517733979656009,0.43614604279876124,7,1
exteroceptive,0.3598862620324423,True,False,0.26793916411181734,0.28783795846343485,7,1
exteroceptive,0.39587488823568656,True,True,0.5070426083652906,0.33044593035244946,7,1
exteroceptive,0.3562873994121179,False,False,0.4806053626388701,0.26679099931866535,7,1
exteroceptive,0.3919161393533297,True,False,0.7136627086824918,0.330336273024368,7,1
exteroceptive,0.4311077532886627,False,True,0.434614013513477,0.3379586511220688,7,1
exteroceptive,0.38799697795979643,True,False,0.42265734624587903,0.34079598196699923,7,1
exteroceptive,0.4267966757557761,False,True,0.3692825302766789,0.4194930585122488,7,1
exteroceptive,0.3841170081801985,True,False,0.4930731950677252,0.4908716533512635,7,1
exteroceptive,0.42252870899821837,True,False,0.48758074009157903,0.5094192182636127,7,1
exteroceptive,0.46478157989804025,True,True,0.37864767374932573,0.5983583473877432,7,1
exteroceptive,0.4183034219082362,True,False,0.4448710219395728,0.432468406191725,7,1
exteroceptive,0.46013376409905987,False,False,0.37396233189632966,0.3072572873184692,7,1
exteroceptive,0.5061471405089659,False,False,0.36321993420743326,0.5567246587719813,7,1
exteroceptive,0.5567618545598626,False,False,0.5141650375921994,0.5839646243639858,7,1
exteroceptive,0.6124380400158489,True,False,0.45156938080620723,0.5230620348237391,7,1
exteroceptive,0.6736818440174338,True,False,0.41135137108385095,0.6944670077481658,7,1
exteroceptive,0.7410500284191772,False,True,0.49707237147764605,0.8272625025987574,7,1
exteroceptive,0.6669450255772595,False,True,0.5065519175665518,0.9304133852451937,7,1
exteroceptive,0.6002505230195336,True,True,0.4486806258418588,0.6560798689800308,7,1
exteroceptive,0.5402254707175803,True,False,0.42548062491747213,0.5595063043674733,7,1
exteroceptive,0.5942480177893384,True,False,0.5677370953803151,0.7064232603677363,7,1
exteroceptive,0.6536728195682724,False,True,0.6434923087920146,0.7165056613415112,7,1
exteroceptive,0.5883055376114452,False,True,0.578563339985345,0.5664367788462775,7,1
exteroceptive,0.5294749838503007,True,True,0.5035041724206282,0.44538787822436915,7,1
exteroceptive,0.47652748546527063,True,True,0.5303981138816598,0.5999136945084784,7,1
control,0.451128665707365,True,True,0.5535879302583308,0.49499368506974917,7,1
control,0.4060157991366285,True,True,0.4983252409742418,0.6561129427489991,7,1
control,0.36541421922296563,True,True,0.5233998502829555,0.4374149907291419,7,1
control,0.3288727973006691,True,False,0.4687850931231811,0.5281695815688834,7,1
control,0.36176007703073604,True,False,0.8317515962894666,0.40773562827347065,7,1
control,0.39793608473380965,False,True,0.6049678779139597,0.5639410354729603,7,1
control,0.35814247626042867,True,False,0.6060834936392582,0.2741285228322522,7,1
control,0.39395672388647157,True,False,0.4357130388637735,0.4101664225257799,7,1
control,0.4333523962751188,False,True,0.4218234732536031,0.43644703642813987,7,1
control,0.39001715664760694,True,False,0.4598405633427303,0.3390845068957612,7,1
control,0.4290188723123677,False,True,0.41692071887491117,0.27821728291479597,7,1
control,0.3861169850811309,False,False,0.32434896434385657,0.5007729055606038,7,1
control,0.42472868358924404,True,True,0.5581409227053719,0.4094004937902357,7,1
control,0.38225581523031965,True,False,0.5962554843928285,0.33690873332052573,7,1
control,0.42048139675335167,False,False,0.5872197007373829,0.36597556656415475,7,1
control,0.4625295364286869,True,True,0.5918759716755948,0.5931590715956034,7,1
control,0.4162765827858182,True,True,0.7194126470800859,0.2849728391748223,7,1
control,0.37464892450723636,True,True,0.5979051011346197,0.6496604718416189,7,1
control,0.3371840320565127,True,False,0.4968056256121298,0.3579771412412077,7,1
control,0.370902435262164,False,True,0.4028671694773458,0.5707674026292647,7,1
control,0.3338121917359476,False,True,0.4930444227207864,0.5183528550770662,7,1
control,0.30043097256235285,False,False,0.5484816694581338,0.3584739355680123,7,1
control,0.3304740698185882,True,True,0.41973763022079763,0.3050036388545172,7,1
control,0.29742666283672936,False,False,0.5193549981454726,0.25742203746011605,7,1
control,0.3271693291204023,False,True,0.4960128113400686,0.4221805178682443,7,1
control,0.2944523962083621,False,True,0.5412610451167598,0.5038595890195177,7,1
control,0.2650071565875259,True,False,0.3961457374592462,0.3944710695076267,7,1
control,0.2915078722462785,True,False,0.5143317857556877,0.3191838176459544,7,1
control,0.3206586594709064,False,True,0.6308213840777355,0.4425468873027094,7,1
control,0.2885927935238157,True,False,0.706961580665835,0.33872302348858996,7,1
control,0.3174520728761973,False,False,0.45165837337087633,0.37243460453282545,7,1
control,0.34919728016381707,True,False,0.4595189186850103,0.4743424770742718,7,1
control,0.3841170081801988,False,True,0.42317424988125896,0.22039273099766069,7,1
control,0.3457053073621789,True,True,0.42277158126837916,0.4045471412541538,7,1
control,0.311134776625961,True,False,0.6609809420665814,0.44360198603521767,7,1
control,0.34224825428855715,True,True,0.4406151173518242,0.6187642874543158,7,1
control,0.30802342885970146,True,False,0.4272627119389329,0.46705171838244613,7,1
control,0.33882577174567163,True,False,0.523065363501403,0.48056218071612944,7,1
control,0.37270834892023885,False,False,0.4145833644643968,0.3795150879240205,7,1
control,0.4099791838122628,True,False,0.5630608854295724,0.5355376879292886,7,1
control,0.4509771021934891,False,False,0.52412523731575,0.605793425576554,7,1
control,0.496074812412838,True,True,0.4438258923815591,0.5492462430236009,7,1
control,0.44646733117155424,False,False,0.4301913011423168,0.3884676907157817,7,1
control,0.4911140642887097,True,False,0.43170013585128714,0.5581642039117597,7,1
control,0.5402254707175806,True,True,0.6081232111042041,0.5365815051755243,7,1
control,0.48620292364582257,True,False,0.5544615493647723,0.5073474422398841,7,1
control,0.5348232160104048,True,True,0.5453701589717561,0.6510162309979822,7,1
control,0.48134089440936434,True,False,0.5685122679510277,0.5603068134766374,7,1
control,0.5294749838503008,False,True,0.6134927109327963,0.5894769936918974,7,1
control,0.47652748546527074,False,False,0.5853671045850762,0.5196576796057182,7,1
exteroceptive,0.42887473691874356,False,True,0.6124179311973825,0.5170801411838855,8,1
exteroceptive,0.3859872632268692,True,False,0.35030347117525695,0.13098293952974566,8,1
exteroceptive,0.4245859895495562,True,False,0.5115557339481859,0.4972063169211204,8,1
exteroceptive,0.4670445885045118,False,False,0.6645233268677344,0.763762376951269,8,1
exteroceptive,0.5137490473549631,False,True,0.3840598228793233,0.4349033556027075,8,1
exteroceptive,0.4623741426194668,False,True,0.6001259577111789,0.5619984399332283,8,1
exteroceptive,0.41613672835752014,True,False,0.3616343764605061,0.4392142174480089,8,1
exteroceptive,0.4577504011932722,False,False,0.463845488555098,0.39930097881529925,8,1
exteroceptive,0.5035254413125995,True,False,0.47435187965344333,0.5718338556233318,8,1
exteroceptive,0.5538779854438595,True,False,0.39897518973572765,0.5828514442960019,8,1
exteroceptive,0.6092657839882455,False,True,0.48845566607308877,0.43825404719355127,8,1
exteroceptive,0.548339205589421,False,False,0.3971422582744869,0.47939293748568185,8,1
exteroceptive,0.603173126148363,False,True,0.5961361847741234,0.5662245902864841,8,1
exteroceptive,0.5428558135335267,True,False,0.36004513557822404,0.5972891542050799,8,1
exteroceptive,0.5971413948868795,False,False,0.5224111543209524,0.7328747293141575,8,1
exteroceptive,0.6568555343755674,True,False,0.6829845534773521,0.5975810915075096,8,1
exteroceptive,0.7225410878131242,True,True,0.5034822131513998,0.5539430498679814,8,1
exteroceptive,0.6502869790318118,False,False,0.36433388680775347,0.6773113064928726,8,1
exteroceptive,0.715315676934993,True,True,0.47521214468721745,0.7898403675797462,8,1
exteroceptive,0.6437841092414937,False,False,0.49712262618426456,0.7376469291194261,8,1
exteroceptive,0.7081625201656431,True,False,0.3596982841245199,0.4988621146830331,8,1
exteroceptive,0.7789787721822075,True,True,0.6743563664942837,0.7935291699113827,8,1
exteroceptive,0.7010808949639867,True,True,0.5901904683273539,0.6698859511693531,8,1
exteroceptive,0.630972805467588,False,False,0.5924207875998249,0.6955288819054188,8,1
exteroceptive,0.6940700860143469,True,False,0.54090404005438,0.8379898275720467,8,1
exteroceptive,0.7634770946157817,True,True,0.47204932499065183,0.8465370144802049,8,1
exteroceptive,0.6871293851542035,False,True,0.48301949732234783,0.7361103466101633,8,1
exteroceptive,0.6184164466387831,True,False,0.4961269505681408,0.5898134721438293,8,1
exteroceptive,0.6802580913026615,False,True,0.5391904488766976,0.7407519903477224,8,1
exteroceptive,0.6122322821723953,False,False,0.6511141250342125,0.5639757658143654,8,1
exteroceptive,0.6734555103896349,True,True,0.5861363991324078,0.45036543837756077,8,1
exteroceptive,0.6061099593506715,False,True,0.7531324575322195,0.6354041494067457,8,1
exteroceptive,0.5454989634156043,True,True,0.5879430727867097,0.6387120749442217,8,1
exteroceptive,0.4909490670740439,True,False,0.48129341488047905,0.43366063533572485,8,1
exteroceptive,0.5400439737814483,False,False,0.5072037074554653,0.6261503955401968,8,1
exteroceptive,0.5940483711595932,False,False,0.4382750153958545,0.4914596601264729,8,1
exteroceptive,0.6534532082755525,True,True,0.6026322923658198,0.6493141410924987,8,1
exteroceptive,0.5881078874479972,False,False,0.5838471224832322,0.4671349722167142,8,1
exteroceptive,0.646918676192797,True,False,0.5834980820737488,0.6654556476967912,8,1
exteroceptive,0.7116105438120768,True,True,0.5968861769864976,0.6207726144131501,8,1
exteroceptive,0.6404494894308691,True,True,0.48230050856028084,0.6564738715433114,8,1
exteroceptive,0.5764045404877822,False,False,0.5234765649897821,0.6340175682704796,8,1
exteroceptive,0.6340449945365605,True,True,0.5424364590934164,0.6061095086935345,8,1
exteroceptive,0.5706404950829045,True,False,0.49199155634366776,0.5576737724935814,8,1
exteroceptive,0.627704544591195,True,True,0.5159015956054367,0.7806164389108038,8,1
exteroceptive,0.5649340901320755,True,False,0.5373081723225183,0.5165733650741943,8,1
exteroceptive,0.6214274991452832,False,False,0.46369298366863076,0.5451800150427001,8,1
exteroceptive,0.6835702490598116,True,True,0.5346086916296257,0.6522770740500233,8,1
exteroceptive,0.6152132241538304,True,False,0.5264819863502878,0.641814418294976,8,1
exteroceptive,0.6767345465692135,False,False,0.4802925484183926,0.42149070597684346,8,1
interoceptive,0.42887473691874295,True,True,0.47513438245485873,0.44729890939258826,8,1
interoceptive,0.38598726322686866,True,False,0.5236254989066913,0.25140485748634384,8,1
interoceptive,0.42458598954955556,False,False,0.5820378615470996,0.32047300596361167,8,1
interoceptive,0.46704458850451114,True,True,0.5768187711987545,0.5462765185881369,8,1
interoceptive,0.42034012965406004,True,False,0.4282011542011003,0.2906411923274378,8,1
interoceptive,0.4623741426194661,True,True,0.6143946375617362,0.5314939008977584,8,1
interoceptive,0.41613672835751947,False,False,0.5334385262006014,0.3839587792232694,8,1
interoceptive,0.45775040119327143,False,True,0.6504367054579666,0.3836205210295771,8,1
interoceptive,0.4119753610739443,True,True,0.5115717447527197,0.467162716815196,8,1
interoceptive,0.3707778249665499,False,True,0.44272156722308653,0.2655184436836734,8,1
interoceptive,0.3337000424698949,False,False,0.5084247124142938,0.27849032404056917,8,1
interoceptive,0.36707004671688437,True,False,0.5883161585450424,0.2958986661750556,8,1
interoceptive,0.40377705138857284,False,True,0.5865447024159332,0.5012487861262481,8,1
interoceptive,0.36339934624971554,False,True,0.41126280290954664,0.29868393133989646,8,1
interoceptive,0.327059411624744,False,True,0.5422736665588344,0.46402299464249197,8,1
interoceptive,0.2943534704622696,False,False,0.6096157661436398,0.027846004538635866,8,1
interoceptive,0.3237888175084966,True,True,0.47864002553335927,0.34269523619353204,8,1
interoceptive,0.29140993575764695,False,False,0.2964109406670351,0.3596800478375466,8,1
interoceptive,0.32055092933341167,True,True,0.40290270735638034,0.2433978712415816,8,1
interoceptive,0.28849583640007054,False,False,0.39548321755896126,0.3111240381325922,8,1
interoceptive,0.3173454200400776,False,False,0.6485047672305939,0.25935274847817424,8,1
interoceptive,0.34907996204408537,True,True,0.3451958986793622,0.25007768736899083,8,1
interoceptive,0.3141719658396768,True,False,0.36727782176763524,0.25244823804372357,8,1
interoceptive,0.3455891624236445,True,False,0.6662007084011481,0.21930342212604492,8,1
interoceptive,0.38014807866600897,False,True,0.6048182543234105,0.5046031903506442,8,1
interoceptive,0.3421332707994081,True,False,0.6643696057478224,0.3394626083726119,8,1
interoceptive,0.37634659787934893,True,False,0.5376705227396141,0.49070247319518845,8,1
interoceptive,0.4139812576672839,False,True,0.5382579215224327,0.3820282456804137,8,1
interoceptive,0.37258313190055553,True,True,0.3500598027321665,0.39740322963856245,8,1
interoceptive,0.33532481871049996,True,False,0.6320368720914328,0.3992758423316383,8,1
interoceptive,0.36885730058155,False,False,0.5381646418771439,0.4594061077551127,8,1
interoceptive,0.405743030639705,False,True,0.5481816600688133,0.3302835963836608,8,1
interoceptive,0.36516872757573454,True,True,0.549090279837267,0.35941101994239444,8,1
interoceptive,0.3286518548181611,False,True,0.5542392553351331,0.30991986030466057,8,1
interoceptive,0.295786669336345,False,True,0.6433449217940767,0.2653227437079377,8,1
interoceptive,0.26620800240271053,True,False,0.4380926969964075,0.23982384171493176,8,1
interoceptive,0.2928288026429816,True,False,0.5116719027818304,0.25894569339719226,8,1
interoceptive,0.3221116829072798,True,False,0.4625422664892921,0.28355688030610465,8,1
interoceptive,0.3543228511980078,True,True,0.49445485432313785,0.3672912321255297,8,1
interoceptive,0.31889056607820704,False,True,0.6935937823576854,0.29155172121017525,8,1
interoceptive,0.28700150947038633,True,False,0.3438434273445392,0.1546310087171795,8,1
interoceptive,0.315701660417425,True,True,0.5379465632840992,0.20784473406950055,8,1
interoceptive,0.28413149437568247,True,True,0.456027692747131,0.33996066017291154,8,1
interoceptive,0.25571834493811424,False,False,0.6870468769934347,0.2828316242010133,8,1
interoceptive,0.2812901794319257,False,False,0.36055355474111905,0.32707305718784896,8,1
interoceptive,0.3094191973751183,False,False,0.4929364919098429,0.2881021825960804,8,1
interoceptive,0.3403611171126302,False,False,0.408566624853713,0.24580723351803152,8,1
interoceptive,0.3743972288238932,True,True,0.45797825839293554,0.44748084911948843,8,1
interoceptive,0.33695750594150387,True,False,0.49088083972397156,0.24230760078311503,8,1
interoceptive,0.3706532565356543,False,False,0.4627446252892652,0.37648147468419996,8,1
control,0.5241802340117978,False,False,0.5081056109086868,0.6117926608959265,8,1
control,0.5765982574129777,True,True,0.3471724848533791,0.5921364662587983,8,1
control,0.5189384316716799,True,True,0.46581830973972943,0.5979191717446237,8,1
control,0.46704458850451186,True,False,0.4153697467183831,0.5468688195502951,8,1
control,0.5137490473549631,False,False,0.4489752605277347,0.5650931843084313,8,1
control,0.5651239520904594,True,False,0.4038614591285356,0.6402840624526034,8,1
control,0.6216363472995053,False,False,0.32290078618380946,0.6396461264235221,8,1
control,0.6837999820294559,True,True,0.530056252633431,0.6085585558835218,8,1
control,0.6154199838265103,False,False,0.5244022509228999,0.6046844056568326,8,1
control,0.6769619822091614,True,False,0.4730169761756396,0.666784038436387,8,1
control,0.7446581804300776,True,True,0.35358843599280154,0.8234009025115767,8,1
control,0.6701923623870698,True,True,0.48804510405537493,0.653010918228794,8,1
control,0.6031731261483628,False,False,0.5985149232250742,0.6790792903613195,8,1
control,0.6634904387631991,False,True,0.6520073832510416,0.5269539767960584,8,1
control,0.5971413948868792,False,True,0.4618068326563794,0.43996145904608835,8,1
control,0.5374272553981914,True,True,0.60702966471876,0.48150444367827727,8,1
control,0.48368452985837224,False,False,0.530656594242342,0.3491969854130976,8,1
control,0.5320529828442095,False,True,0.4662946449411032,0.5288768254630252,8,1
control,0.4788476845597886,False,True,0.4078171620386484,0.5200348166838471,8,1
control,0.43096291610380977,True,True,0.4780467491378151,0.6241867601204572,8,1
control,0.3878666244934288,False,False,0.46723128890706445,0.2899932708289994,8,1
control,0.4266532869427717,True,True,0.42930917330942925,0.5469731232278296,8,1
control,0.3839879582484946,True,False,0.5452536926095896,0.5536135351387057,8,1
control,0.4223867540733441,False,True,0.36297702204827204,0.4808678855111887,8,1
control,0.3801480786660097,False,True,0.3160082500013243,0.4392833533013675,8,1
control,0.34213327079940875,True,False,0.4503272803613384,0.3072983783775297,8,1
control,0.37634659787934965,False,False,0.7374273885987248,0.4530996237636787,8,1
control,0.41398125766728466,False,False,0.3676663223061736,0.4235332932280368,8,1
control,0.4553793834340132,False,False,0.4711814095933173,0.46521165106098894,8,1
control,0.5009173217774145,True,False,0.5617322913467186,0.6018885628190936,8,1
control,0.5510090539551561,False,False,0.6406326701743361,0.40752644822070344,8,1
