condition,contrast,is_synchronous,response,rt,detection_prob,participant_id,trial_num
exteroceptive,0.5,False,False,0.4725978735746485,0.4355531659398939,1,1
exteroceptive,0.55,False,True,0.48765084289009175,0.6710806325705498,1,1
exteroceptive,0.49500000000000005,True,True,0.47150417143164164,0.5845901158267711,1,1
exteroceptive,0.44550000000000006,True,True,0.5347652604807929,0.4905523069855821,1,1
exteroceptive,0.4009500000000001,True,True,0.5146626297396438,0.2983104960526639,1,1
exteroceptive,0.3608550000000001,True,False,0.28444789131225057,0.2202344610330894,1,1
exteroceptive,0.39694050000000014,False,False,0.6793722297689488,0.42829488535723315,1,1
exteroceptive,0.4366345500000002,True,False,0.5659004129900043,0.4036519466438861,1,1
exteroceptive,0.48029800500000025,False,False,0.41447151352424605,0.6038131999348694,1,1
exteroceptive,0.5283278055000004,False,False,0.5292967628232488,0.5067986256069235,1,1
exteroceptive,0.5811605860500004,False,True,0.47947434867603766,0.6708282966606423,1,1
exteroceptive,0.5230445274450004,True,False,0.7098982041157613,0.524621402828802,1,1
exteroceptive,0.5753489801895005,False,True,0.47702189806372275,0.5341163157069276,1,1
exteroceptive,0.5178140821705505,False,False,0.6107817118966865,0.4225363779065055,1,1
exteroceptive,0.5695954903876056,False,False,0.37849760635180696,0.5724309437357744,1,1
exteroceptive,0.6265550394263663,True,True,0.5216105985178386,0.5288161323484203,1,1
exteroceptive,0.5638995354837296,False,True,0.3532403082289079,0.5281358916847613,1,1
exteroceptive,0.5075095819353567,True,True,0.5107547088138271,0.3215351541659638,1,1
exteroceptive,0.456758623741821,True,True,0.36902598980245455,0.659091496737396,1,1
exteroceptive,0.41108276136763894,False,False,0.5817308811440872,0.3084487701958466,1,1
exteroceptive,0.45219103750440287,True,False,0.5398810891952999,0.3975705737752179,1,1
exteroceptive,0.4974101412548432,True,False,0.6143136635602862,0.7375959622240056,1,1
exteroceptive,0.5471511553803275,True,True,0.42899403172003253,0.4596448878455267,1,1
exteroceptive,0.4924360398422948,False,True,0.5229268556408767,0.5016528594108013,1,1
exteroceptive,0.44319243585806534,False,True,0.3761822253488203,0.4832382533707973,1,1
exteroceptive,0.3988731922722588,False,False,0.48285566639416305,0.41528353118211403,1,1
exteroceptive,0.43876051149948475,False,True,0.5223662114111461,0.3864592190240387,1,1
exteroceptive,0.3948844603495363,False,False,0.3547386056180073,0.47399547326258873,1,1
exteroceptive,0.43437290638448994,True,True,0.3527603715565603,0.5183684832162376,1,1
exteroceptive,0.39093561574604097,False,True,0.4317863249428776,0.5198117561277911,1,1
exteroceptive,0.3518420541714369,True,False,0.4837934737429424,0.4558378848145168,1,1
exteroceptive,0.3870262595885806,True,True,0.41543716191803925,0.46447803969726786,1,1
exteroceptive,0.3483236336297226,True,False,0.4170505079357985,0.3531906120464569,1,1
exteroceptive,0.38315599699269487,False,False,0.4872206614625644,0.3256213527284767,1,1
exteroceptive,0.4214715966919644,True,True,0.5960471512477385,0.40777863981219487,1,1
exteroceptive,0.37932443702276797,False,True,0.6217929576607027,0.5506866881474302,1,1
exteroceptive,0.3413919933204912,False,False,0.4749950934004353,0.3394791882928504,1,1
exteroceptive,0.37553119265254037,False,False,0.5044412894147947,0.3175443738037914,1,1
exteroceptive,0.41308431191779443,False,False,0.5539934254556389,0.3351272130051981,1,1
exteroceptive,0.4543927431095739,False,False,0.5174823167244252,0.5516821888342941,1,1
exteroceptive,0.49983201742053135,True,False,0.27783983622899044,0.4955099028570791,1,1
exteroceptive,0.5498152191625846,False,True,0.6456276422509749,0.6300579613480115,1,1
exteroceptive,0.49483369724632614,True,False,0.4909572997566978,0.5151894889893053,1,1
exteroceptive,0.5443170669709588,True,False,0.42279641490360603,0.5869613569332429,1,1
exteroceptive,0.5987487736680548,False,False,0.40899905466529635,0.520430955206314,1,1
exteroceptive,0.6586236510348603,False,False,0.45450139194750544,0.5013169452945898,1,1
exteroceptive,0.7244860161383464,True,True,0.5592810263753385,0.6916106959463436,1,1
exteroceptive,0.6520374145245118,False,False,0.47580815780543456,0.7072389564270001,1,1
exteroceptive,0.717241155976963,True,True,0.5771779212529089,0.8397507588519826,1,1
exteroceptive,0.6455170403792667,True,False,0.5173676480502899,0.5389067363846435,1,1
interoceptive,0.5,False,False,0.5891481495198759,0.5577932718058067,1,1
interoceptive,0.55,True,True,0.4248005872528283,0.5849239967858734,1,1
interoceptive,0.49500000000000005,True,False,0.15400370188385382,0.38785518654217427,1,1
interoceptive,0.5445000000000001,True,True,0.44049732602470576,0.4939479591972864,1,1
interoceptive,0.4900500000000001,False,True,0.42311877089702477,0.47185895258995186,1,1
interoceptive,0.4410450000000001,False,True,0.502288829185499,0.2424822426991471,1,1
interoceptive,0.3969405000000001,True,False,0.3364528741066198,0.3375950270287551,1,1
interoceptive,0.4366345500000001,False,False,0.6184524238447724,0.36619250956336363,1,1
interoceptive,0.4802980050000002,False,True,0.425951799036142,0.44399848535977865,1,1
interoceptive,0.4322682045000002,True,False,0.5703311702999119,0.510214759889164,1,1
interoceptive,0.47549502495000023,False,True,0.3561463386556386,0.5653554882505998,1,1
interoceptive,0.4279455224550002,True,False,0.5902033567105007,0.3333390505668189,1,1
interoceptive,0.4707400747005003,True,False,0.5460773693888091,0.5381988568551404,1,1
interoceptive,0.5178140821705504,False,False,0.6188676923119276,0.7062597257316368,1,1
interoceptive,0.5695954903876055,True,False,0.5882776501565806,0.6953603599002318,1,1
interoceptive,0.626555039426366,True,True,0.6830442106050167,0.6104969168664846,1,1
interoceptive,0.5638995354837294,True,False,0.593126976549114,0.3809649079126486,1,1
interoceptive,0.6202894890321023,False,False,0.4633097964236786,0.5147591232840308,1,1
interoceptive,0.6823184379353127,False,True,0.47680035349162825,0.7143672019348855,1,1
interoceptive,0.6140865941417815,False,True,0.5162169631660138,0.6886465105112226,1,1
interoceptive,0.5526779347276033,True,False,0.5173438632382956,0.573266680432638,1,1
interoceptive,0.6079457282003636,True,True,0.3121447132681031,0.681086970938053,1,1
interoceptive,0.5471511553803273,True,False,0.45434411929607876,0.5721336684453362,1,1
interoceptive,0.6018662709183601,True,True,0.34219766205053737,0.5420396639767477,1,1
interoceptive,0.5416796438265241,False,True,0.5908793418628977,0.5591029313059029,1,1
interoceptive,0.4875116794438717,True,True,0.5387726595112665,0.5532655250421906,1,1
interoceptive,0.43876051149948453,False,True,0.5245072885357268,0.4411337965064267,1,1
interoceptive,0.39488446034953606,True,True,0.4903730097509591,0.33520206574573286,1,1
interoceptive,0.35539601431458245,False,False,0.5534801942022346,0.3753666978085116,1,1
interoceptive,0.39093561574604074,False,True,0.3996240039023886,0.49887270622156143,1,1
interoceptive,0.35184205417143666,True,False,0.44993990394038286,0.4754090739936673,1,1
interoceptive,0.38702625958858033,True,False,0.5090310084240557,0.1943809986406784,1,1
interoceptive,0.42572888554743843,False,False,0.5883307569297647,0.43039574296785105,1,1
interoceptive,0.4683017741021823,False,True,0.44631800651053793,0.4379721280655322,1,1
interoceptive,0.4214715966919641,True,True,0.5477416698966678,0.3858372669441787,1,1
interoceptive,0.3793244370227677,False,False,0.2933178231454733,0.38355935778327155,1,1
interoceptive,0.4172568807250445,True,False,0.4889676956960758,0.3024214975401571,1,1
interoceptive,0.458982568797549,True,True,0.7517474257200142,0.36701674009417407,1,1
interoceptive,0.4130843119177941,False,False,0.42767039938473744,0.5004446485291649,1,1
interoceptive,0.45439274310957356,False,False,0.48610837288149894,0.4871834960719056,1,1
interoceptive,0.49983201742053096,False,False,0.5745342509689911,0.36656219027004033,1,1
interoceptive,0.5498152191625841,False,True,0.30125458080869644,0.39433152539426153,1,1
interoceptive,0.49483369724632575,True,True,0.5450879066856154,0.3973971662800593,1,1
interoceptive,0.4453503275216932,False,True,0.5037409752111055,0.4146403836290216,1,1
interoceptive,0.4008152947695239,False,True,0.4965255224299861,0.46428505387902474,1,1
interoceptive,0.3607337652925715,True,False,0.547642112980051,0.2992720707086732,1,1
interoceptive,0.3968071418218287,True,False,0.67356520052059,0.48323174529839086,1,1
interoceptive,0.4364878560040116,False,False,0.6185499613434516,0.2232649773065406,1,1
interoceptive,0.4801366416044128,False,False,0.5141702224012937,0.44206526008439184,1,1
interoceptive,0.5281503057648541,True,True,0.4390499070149025,0.7436945578179248,1,1
control,0.5,True,True,0.47633532286622915,0.5849072326685208,1,1
control,0.45,False,False,0.37443757621027884,0.5817242791050892,1,1
control,0.49500000000000005,True,False,0.5520317144412829,0.42042455270666756,1,1
control,0.5445000000000001,True,True,0.4910982657404638,0.5268920323632096,1,1
control,0.4900500000000001,False,True,0.4928950753023284,0.40899331158457874,1,1
control,0.4410450000000001,False,False,0.5406518173416032,0.2881584730787208,1,1
control,0.4851495000000001,False,False,0.35553266472511375,0.43694207260343926,1,1
control,0.5336644500000002,False,True,0.6680834722387068,0.48048195136766475,1,1
control,0.4802980050000002,False,True,0.5324517282920961,0.6999910846306168,1,1
control,0.4322682045000002,True,True,0.4813086659677231,0.49082490622071934,1,1
control,0.38904138405000016,True,True,0.39840405911762855,0.4137815451081076,1,1
control,0.35013724564500015,True,True,0.34024821154790086,0.3153171135927564,1,1
control,0.3151235210805001,True,True,0.6516525114730134,0.4476828473472621,1,1
control,0.28361116897245015,False,True,0.5502655508967434,0.48706077503022666,1,1
control,0.2552500520752051,False,False,0.3720249126760324,0.3049277030904865,1,1
control,0.28077505728272567,False,False,0.6135687526996065,0.36361531564038135,1,1
control,0.3088525630109983,False,False,0.5240192867412778,0.30758333090004525,1,1
control,0.3397378193120981,True,True,0.4216617102057829,0.5007907059657528,1,1
control,0.3057640373808883,False,False,0.4107804169265707,0.2949682936855914,1,1
control,0.33634044111897715,True,False,0.520745854048571,0.42769804427898456,1,1
control,0.3699744852308749,True,False,0.4370489712286378,0.43488911951045117,1,1
control,0.4069719337539624,False,False,0.529175584591113,0.4540033001452016,1,1
control,0.4476691271293587,False,False,0.654124074051209,0.5632422968060885,1,1
control,0.4924360398422946,False,False,0.4160520463999031,0.48710667054725204,1,1
control,0.5416796438265241,True,True,0.5053269138373141,0.5003535018533921,1,1
control,0.4875116794438717,False,True,0.4367071258322498,0.5375448313501044,1,1
control,0.43876051149948453,False,False,0.43430841966365297,0.4691026814640478,1,1
control,0.482636562649433,False,False,0.4195855121837186,0.474417628776092,1,1
control,0.5309002189143763,True,False,0.5749327181010917,0.5562162076952748,1,1
control,0.583990240805814,True,False,0.6937997820935089,0.7435255162155111,1,1
control,0.6423892648863954,True,False,0.3480872823255435,0.6281383528797821,1,1
control,0.706628191375035,False,True,0.5627764075561168,0.7337369173035555,1,1
control,0.6359653722375315,True,False,0.4134419616604738,0.43029506118662997,1,1
control,0.6995619094612847,True,True,0.38196615281263185,0.7570219369997441,1,1
control,0.6296057185151562,False,False,0.46953880240098234,0.7096493143787447,1,1
control,0.6925662903666719,False,False,0.7012596596876856,0.5647411613175115,1,1
control,0.7618229194033392,False,False,0.3366056606139641,0.44318796576422226,1,1
control,0.8380052113436732,False,True,0.5418958599758886,0.6865001670571389,1,1
control,0.7542046902093059,True,True,0.5793531877041957,0.6951182950515714,1,1
control,0.6787842211883753,True,False,0.4366727167448317,0.7144707228564517,1,1
control,0.7466626433072129,True,False,0.423476024866634,0.6963302293052427,1,1
control,0.8213289076379342,False,True,0.7045928095534786,0.706815368467623,1,1
control,0.7391960168741408,True,True,0.5279624397415874,0.6424322584148917,1,1
control,0.6652764151867268,True,True,0.5083625082166039,0.6138150666621569,1,1
control,0.5987487736680541,False,True,0.6400056050921072,0.3703125704378501,1,1
control,0.5388738963012487,True,True,0.4577961077494929,0.4814384925902416,1,1
control,0.48498650667112386,True,True,0.4670456164222402,0.4621971989658802,1,1
control,0.43648785600401147,True,True,0.30465564975612136,0.5411683443793696,1,1
control,0.3928390704036103,True,True,0.6149175170716642,0.44967524863113095,1,1
control,0.3535551633632493,False,True,0.47506909198512115,0.44973062790233675,1,1
interoceptive,0.4753352751883687,True,False,0.4528345698367139,0.3477094515784699,2,1
interoceptive,0.5228688027072056,False,True,0.4331426619467398,0.3399509173189784,2,1
interoceptive,0.47058192243648506,False,True,0.3498680163338449,0.5449699067628393,2,1
interoceptive,0.42352373019283657,True,True,0.5817901428769434,0.5185259074735556,2,1
interoceptive,0.38117135717355294,True,True,0.722899085052662,0.5425292017827907,2,1
interoceptive,0.3430542214561976,False,True,0.3642349551832782,0.29123650644674026,2,1
interoceptive,0.30874879931057786,False,False,0.35242920468829836,0.3035448031574572,2,1
interoceptive,0.33962367924163567,True,False,0.35077568159297423,0.29562856657559183,2,1
interoceptive,0.37358604716579924,True,False,0.5243772106684742,0.33438534043669105,2,1
interoceptive,0.4109446518823792,False,False,0.5605494449715581,0.36606987901031013,2,1
interoceptive,0.45203911707061717,True,True,0.40347175974728167,0.34974677123688147,2,1
interoceptive,0.40683520536355544,True,False,0.4265329625520784,0.35586789489218995,2,1
interoceptive,0.44751872589991104,False,True,0.417199368936042,0.3441109508528187,2,1
interoceptive,0.40276685330991996,False,False,0.4551427109572863,0.42832922508840343,2,1
interoceptive,0.443043538640912,False,True,0.5687717967376766,0.48201187068776097,2,1
interoceptive,0.3987391847768208,True,True,0.517044100003942,0.36604007057662225,2,1
interoceptive,0.35886526629913873,True,False,0.463539134816349,0.26979010796707015,2,1
interoceptive,0.39475179292905266,True,True,0.47182042506517147,0.2864155936558765,2,1
interoceptive,0.3552766136361474,False,True,0.4288713164454114,0.32929091347771944,2,1
interoceptive,0.31974895227253264,False,True,0.5369263802036275,0.2394669903529249,2,1
interoceptive,0.28777405704527936,False,False,0.4925892707032743,0.25399303951141905,2,1
interoceptive,0.31655146274980733,True,False,0.5068234247083159,0.20781069184549278,2,1
interoceptive,0.3482066090247881,False,False,0.520831686546184,0.23636289094085955,2,1
interoceptive,0.38302726992726693,True,True,0.46799617531051035,0.43655939875295136,2,1
interoceptive,0.34472454293454025,True,True,0.5241683728656338,0.3732337521706511,2,1
interoceptive,0.3102520886410862,True,False,0.48917681785505157,0.26793463404515433,2,1
interoceptive,0.34127729750519487,True,False,0.5624543730196984,0.2606198293742513,2,1
interoceptive,0.3754050272557144,False,True,0.4897217724781075,0.38631477269832226,2,1
interoceptive,0.337864524530143,False,True,0.4830113435363265,0.40375351688104777,2,1
interoceptive,0.30407807207712867,True,False,0.46449824201580436,0.24621362479425268,2,1
interoceptive,0.3344858792848416,False,False,0.6381320058363585,0.19413306728083018,2,1
interoceptive,0.3679344672133258,True,False,0.6786562560725845,0.34987619704187695,2,1
interoceptive,0.4047279139346584,False,False,0.5713465186510899,0.44061838039124135,2,1
interoceptive,0.4452007053281243,False,True,0.3598371753369842,0.5155278061494233,2,1
interoceptive,0.40068063479531185,True,True,0.5265874015723802,0.5645588717635841,2,1
interoceptive,0.3606125713157807,False,False,0.6372599695966977,0.3219697681992616,2,1
interoceptive,0.39667382844735877,False,False,0.5068577513712015,0.3869747450691661,2,1
interoceptive,0.4363412112920947,False,True,0.6542817465303755,0.4477695944553644,2,1
interoceptive,0.39270709016288524,True,False,0.38223840607214504,0.21665836927318954,2,1
interoceptive,0.4319777991791738,False,False,0.5549617121663775,0.47658354664690017,2,1
interoceptive,0.4751755790970912,False,False,0.5746469191482795,0.27719898444011687,2,1
interoceptive,0.5226931370068003,False,False,0.6590764342654374,0.3899816359662639,2,1
interoceptive,0.5749624507074804,False,True,0.6247792803618543,0.5179356831710591,2,1
interoceptive,0.5174662056367324,True,True,0.3852969429347501,0.5281868515659756,2,1
interoceptive,0.46571958507305916,False,False,0.4477117289725659,0.5456159452366537,2,1
interoceptive,0.5122915435803651,True,True,0.4757514290582442,0.42700954049339485,2,1
interoceptive,0.4610623892223286,False,False,0.4795889523545953,0.5212981942006301,2,1
interoceptive,0.5071686281445615,False,True,0.6594850367602112,0.5611771385118915,2,1
interoceptive,0.4564517653301054,False,True,0.3746952459631532,0.5691633181589202,2,1
interoceptive,0.41080658879709486,False,True,0.6167286690794143,0.2812034267915881,2,1
exteroceptive,0.7100687444171935,True,False,0.5187793495209695,0.6745591484861113,2,1
exteroceptive,0.7810756188589129,True,True,0.6032104449664295,0.6266052470487619,2,1
exteroceptive,0.7029680569730216,False,False,0.5617200240655279,0.7459444229282515,2,1
exteroceptive,0.7732648626703238,False,True,0.46865163347335653,0.8251669119927012,2,1
exteroceptive,0.6959383764032915,True,True,0.6174742774884578,0.6678573994747533,2,1
exteroceptive,0.6263445387629624,False,False,0.7124843868770255,0.624666983791409,2,1
exteroceptive,0.6889789926392587,True,True,0.5295646956787798,0.5163886364620098,2,1
exteroceptive,0.6200810933753328,False,False,0.41496971258791865,0.4799712414217378,2,1
exteroceptive,0.6820892027128661,False,False,0.48771875045694946,0.6879593837324087,2,1
exteroceptive,0.7502981229841528,True,True,0.42471464046280905,0.5926080756241018,2,1
exteroceptive,0.6752683106857376,False,True,0.4901824425804184,0.7625264738636011,2,1
exteroceptive,0.6077414796171638,True,True,0.49522868635232176,0.7124931431716099,2,1
exteroceptive,0.5469673316554475,True,True,0.5288730600382638,0.5576287612673062,2,1
exteroceptive,0.4922705984899028,False,True,0.6996630653039662,0.5264272782379238,2,1
exteroceptive,0.4430435386409125,True,True,0.5659855629428974,0.49811230856328137,2,1
exteroceptive,0.39873918477682124,False,False,0.7727263770342168,0.455235400550127,2,1
exteroceptive,0.4386131032545034,False,False,0.452913167158232,0.4088581419683635,2,1
exteroceptive,0.4824744135799538,True,True,0.4622108481371139,0.48361245304261646,2,1
exteroceptive,0.43422697222195844,True,False,0.36455410419514833,0.5514077640484865,2,1
exteroceptive,0.4776496694441543,False,False,0.4643625883563757,0.5294413697523608,2,1
exteroceptive,0.5254146363885698,True,False,0.5440629542271697,0.6083761489043497,2,1
exteroceptive,0.5779561000274268,True,True,0.3593409138642389,0.46842285004509127,2,1
exteroceptive,0.5201604900246841,True,True,0.759133054002663,0.5755341479666821,2,1
exteroceptive,0.4681444410222157,True,True,0.5907412714123847,0.40703650997235113,2,1
exteroceptive,0.4213299969199941,True,True,0.6438124431270649,0.5079992602525512,2,1
exteroceptive,0.3791969972279947,True,True,0.5808053554810277,0.37337010699092577,2,1
exteroceptive,0.34127729750519525,True,True,0.4141773449194487,0.4225916802933955,2,1
exteroceptive,0.3071495677546757,False,False,0.6172934402909702,0.452867467200147,2,1
exteroceptive,0.3378645245301433,False,False,0.58580853668691,0.38419630821646794,2,1
exteroceptive,0.3716509769831577,True,False,0.5269555176379462,0.3869159549292225,2,1
exteroceptive,0.40881607468147346,False,True,0.6286775416284873,0.6744722553422788,2,1
exteroceptive,0.3679344672133261,True,True,0.31274803397959644,0.25771152506778294,2,1
exteroceptive,0.3311410204919935,True,False,0.550263948403487,0.36123653348502527,2,1
exteroceptive,0.3642551225411929,True,True,0.5033750708047203,0.4767323346768312,2,1
exteroceptive,0.32782961028707364,False,False,0.6502126030733382,0.3584758781708809,2,1
exteroceptive,0.360612571315781,False,True,0.5100386847020908,0.5233324384784317,2,1
exteroceptive,0.3245513141842029,False,True,0.3939952510724077,0.31113577443889695,2,1
exteroceptive,0.29209618276578264,True,False,0.5099802792977022,0.27737916282779496,2,1
exteroceptive,0.32130580104236095,False,True,0.5344168626649048,0.43050812515756165,2,1
exteroceptive,0.28917522093812487,True,False,0.3095300501980839,0.22022455245083009,2,1
exteroceptive,0.31809274303193735,True,True,0.5199398125705377,0.19644400809123397,2,1
exteroceptive,0.2862834687287436,True,True,0.5432042522224326,0.4428025301341051,2,1
exteroceptive,0.25765512185586925,False,False,0.5183995981320202,0.5233030269075323,2,1
exteroceptive,0.2834206340414562,True,True,0.5172588340828954,0.24473058269141537,2,1
exteroceptive,0.25507857063731054,True,True,0.48779993850585934,0.3533823905767101,2,1
exteroceptive,0.2295707135735795,True,True,0.4997937456028815,0.34418140977195816,2,1
exteroceptive,0.20661364221622155,True,True,0.6816316162444956,0.3034345315382666,2,1
exteroceptive,0.1859522779945994,False,False,0.4577563202659251,0.26477535565107274,2,1
exteroceptive,0.20454750579405936,False,False,0.6073770062231267,0.18102407773314647,2,1
exteroceptive,0.22500225637346533,False,False,0.3365860740573089,0.288912007421369,2,1
control,0.3181996470269244,True,True,0.360030280213922,0.3839037496108343,2,1
control,0.28637968232423194,False,False,0.43720217535637884,0.41151412473595594,2,1
control,0.31501765055665515,True,False,0.43557147316540723,0.50042848267183,2,1
control,0.3465194156123207,True,False,0.5649746489213358,0.26350961763608727,2,1
control,0.38117135717355277,True,False,0.42468292760006177,0.6684865424448995,2,1
control,0.4192884928909081,False,True,0.5540901479334444,0.5692804503652398,2,1
control,0.3773596436018173,True,True,0.5588202599861797,0.5667439248898862,2,1
control,0.33962367924163556,False,True,0.4096951105472662,0.26506426024099483,2,1
control,0.305661311317472,False,False,0.5208283241531083,0.366475232780851,2,1
control,0.3362274424492192,False,False,0.42083359838931034,0.22144935386128156,2,1
control,0.36985018669414116,True,False,0.4809306843929066,0.600436844423238,2,1
control,0.40683520536355533,True,False,0.59755184285092,0.39620123595499634,2,1
control,0.4475187258999109,True,True,0.4651001359987852,0.5865392399467917,2,1
control,0.4027668533099198,False,False,0.5129866009669674,0.40553906160561376,2,1
control,0.4430435386409118,True,True,0.5372112913350113,0.5455662493701584,2,1
control,0.39873918477682063,True,True,0.4071917445874954,0.4025800138295156,2,1
control,0.35886526629913856,False,True,0.570092019516267,0.4136481997436711,2,1
control,0.3229787396692247,True,True,0.5425079401679065,0.41121780652512496,2,1
control,0.2906808657023022,True,False,0.5054296183463467,0.4493817586231711,2,1
control,0.31974895227253247,False,False,0.6136254866253348,0.36912256205294514,2,1
control,0.35172384749978575,False,False,0.5360988608465456,0.4523364013829785,2,1
control,0.3868962322497643,False,False,0.38499749903346625,0.2917066792075607,2,1
control,0.4255858554747408,False,True,0.5681183233065275,0.40555322015625567,2,1
control,0.38302726992726677,True,True,0.5519629166468728,0.6070163359865459,2,1
control,0.3447245429345401,True,False,0.3334595891828276,0.37614739932373675,2,1
control,0.3791969972279941,False,True,0.5158370825975446,0.4219659806175572,2,1
control,0.3412772975051947,False,False,0.45412227814803485,0.41848884891340493,2,1
control,0.3754050272557142,True,True,0.5671709869541787,0.43006882611448893,2,1
control,0.33786452453014276,False,False,0.4927246162237015,0.4621968797943996,2,1
control,0.3716509769831571,False,False,0.3651567538452509,0.4593221977093853,2,1
control,0.4088160746814728,False,True,0.42509538609575026,0.6077770097921008,2,1
control,0.3679344672133255,True,False,0.40074751461433994,0.375485233205605,2,1
control,0.40472791393465807,True,True,0.5131577007548083,0.3511139213719604,2,1
control,0.36425512254119224,True,False,0.3912475210969759,0.456890392226405,2,1
control,0.4006806347953115,True,False,0.5308866067279375,0.6312466151427227,2,1
control,0.4407486982748427,True,True,0.5024632074598417,0.4781515875402741,2,1
control,0.39667382844735843,True,True,0.5540763915668777,0.39609652821871866,2,1
control,0.3570064456026226,True,True,0.5308385716596066,0.49775851922511516,2,1
control,0.3213058010423604,True,True,0.5075154164877975,0.3796215399074124,2,1
control,0.28917522093812437,True,True,0.5039810598568548,0.5698676556851903,2,1
control,0.26025769884431194,True,False,0.5003720724857686,0.30073365043385736,2,1
control,0.28628346872874316,False,False,0.5104585574438316,0.33604719913545533,2,1
control,0.3149118156016175,False,True,0.41511601965990896,0.4662756634542423,2,1
control,0.2834206340414558,True,False,0.3485173307882586,0.39951565554495005,2,1
control,0.31176269744560137,False,False,0.5535110127532525,0.4670727948695686,2,1
control,0.34293896719016154,False,True,0.4385858653255671,0.3940352334365165,2,1
control,0.30864507047114537,False,False,0.621204039793809,0.5467591640076314,2,1
control,0.33950957751825994,True,False,0.4943545313854678,0.3058097783705137,2,1
control,0.373460535270086,True,True,0.583856772185235,0.43026097800093066,2,1
control,0.3361144817430774,True,False,0.45670641473911955,0.5484933202789121,2,1
exteroceptive,0.24750248201081188,True,False,0.44755455957979906,0.34813415973513173,3,1
exteroceptive,0.27225273021189306,True,True,0.5022507699133893,0.105713139872429,3,1
exteroceptive,0.24502745719070376,True,False,0.5376599660549007,0.30190956087580156,3,1
exteroceptive,0.26953020290977414,True,False,0.4040494872469613,0.2989182877429721,3,1
exteroceptive,0.2964832232007516,True,False,0.3820217599198691,0.470133887685056,3,1
exteroceptive,0.3261315455208268,False,False,0.6225375816321977,0.06019685443839817,3,1
exteroceptive,0.3587447000729095,True,True,0.4312654943768063,0.6036857821526362,3,1
exteroceptive,0.32287023006561855,False,True,0.4697439721289756,0.3492924390093749,3,1
exteroceptive,0.2905832070590567,False,False,0.4266505479968992,0.3574296426862246,3,1
exteroceptive,0.3196415277649624,True,False,0.46803454263758565,0.26901573747681073,3,1
exteroceptive,0.3516056805414587,True,True,0.5072893661953277,0.3652672779601716,3,1
exteroceptive,0.31644511248731283,True,False,0.45282169395457306,0.3406241257807183,3,1
exteroceptive,0.34808962373604413,True,True,0.4664605239308633,0.4119839194019975,3,1
exteroceptive,0.3132806613624397,True,True,0.47074916560679153,0.3021179941856481,3,1
exteroceptive,0.28195259522619576,False,False,0.7241809595925792,0.39959025433846196,3,1
exteroceptive,0.31014785474881534,False,True,0.3995654132056206,0.23019306178021237,3,1
exteroceptive,0.27913306927393383,True,False,0.37545968483639075,0.19652366686718958,3,1
exteroceptive,0.30704637620132724,False,True,0.5008003740513516,0.39224479225492725,3,1
exteroceptive,0.27634173858119454,False,False,0.49843428256715144,0.18801514400821115,3,1
exteroceptive,0.30397591243931404,False,False,0.4684280142910693,0.29541664060176165,3,1
exteroceptive,0.3343735036832455,False,True,0.5026755134484351,0.4907060756183987,3,1
exteroceptive,0.30093615331492096,True,False,0.5510156670784517,0.15726495597123658,3,1
exteroceptive,0.3310297686464131,True,False,0.29768218742457586,0.42670800743315446,3,1
exteroceptive,0.36413274551105446,False,False,0.5639903111814787,0.311768763236249,3,1
exteroceptive,0.40054602006215995,False,False,0.5694962265122949,0.49567378165970155,3,1
exteroceptive,0.44060062206837597,False,True,0.5348719952605421,0.38074575832532814,3,1
exteroceptive,0.39654055986153836,False,True,0.4126846240672958,0.3383038099091305,3,1
exteroceptive,0.3568865038753845,True,True,0.3775212919653905,0.3823102801180182,3,1
exteroceptive,0.3211978534878461,True,False,0.41529681327048934,0.23761435339566253,3,1
exteroceptive,0.3533176388366307,True,True,0.36541019386648876,0.5987660921796465,3,1
exteroceptive,0.31798587495296765,False,False,0.5463909334265101,0.2649403395855625,3,1
exteroceptive,0.34978446244826444,True,True,0.48271472807947846,0.3907700682955753,3,1
exteroceptive,0.314806016203438,True,True,0.3973323124497375,0.5606407195085228,3,1
exteroceptive,0.28332541458309424,True,True,0.5960115081464674,0.28086309237918494,3,1
exteroceptive,0.2549928731247848,False,True,0.33769068263986135,0.4197875516990862,3,1
exteroceptive,0.22949358581230633,True,True,0.3960322378054971,0.4262671867719827,3,1
exteroceptive,0.2065442272310757,False,False,0.596935429970177,0.14565235351128603,3,1
exteroceptive,0.2271986499541833,True,False,0.5210646687918612,0.41658523471814224,3,1
exteroceptive,0.24991851494960163,True,True,0.41449162220524743,0.23223107291110856,3,1
exteroceptive,0.22492666345464146,True,False,0.3821278394737016,0.3227346545957197,3,1
exteroceptive,0.24741932980010564,True,False,0.4068560320289752,0.26695016587213616,3,1
exteroceptive,0.2721612627801162,True,False,0.4334986477587903,0.3995806005621614,3,1
exteroceptive,0.29937738905812783,True,False,0.739305259721191,0.3889868003426656,3,1
exteroceptive,0.32931512796394063,False,True,0.47836384012142996,0.47739295513241453,3,1
exteroceptive,0.2963836151675466,False,True,0.6019777936660808,0.28940743361119603,3,1
exteroceptive,0.26674525365079194,True,True,0.4204944700349177,0.4645439139110087,3,1
exteroceptive,0.24007072828571274,True,False,0.5279056669643092,0.15166704952506274,3,1
exteroceptive,0.264077801114284,False,False,0.6313905426016924,0.3619284869949533,3,1
exteroceptive,0.29048558122571244,True,False,0.5743611544738598,0.39672093588816815,3,1
exteroceptive,0.31953413934828373,False,True,0.43322627896919247,0.29094301832013314,3,1
control,0.3697259299173852,True,True,0.3862649477313995,0.5482078343196853,3,1
control,0.3327533369256467,False,False,0.5063774047306657,0.30983381424032014,3,1
control,0.36602867061821137,False,False,0.3491383355653923,0.34256353146471685,3,1
control,0.4026315376800325,True,False,0.518129924393671,0.36309861547062017,3,1
control,0.4428946914480358,True,False,0.4189566902400608,0.4810114814905441,3,1
control,0.4871841605928394,True,False,0.45980084545423383,0.5987133441758011,3,1
control,0.5359025766521234,False,True,0.4574670494904299,0.7167727432626643,3,1
control,0.48231231898691107,False,True,0.600069039592076,0.3969453935916186,3,1
control,0.43408108708821996,False,True,0.5347535045358315,0.42511825276787046,3,1
control,0.39067297837939796,True,True,0.6009063868859109,0.4678491395322216,3,1
control,0.3516056805414582,True,True,0.4200768580867287,0.3609438238557012,3,1
control,0.3164451124873124,True,False,0.5278437068009961,0.4645005985294208,3,1
control,0.34808962373604363,False,True,0.5321926381463898,0.6401500587305076,3,1
control,0.31328066136243926,False,False,0.3399696639733192,0.4278623725815147,3,1
control,0.3446087274986832,True,True,0.6402233551531074,0.4608075934019573,3,1
control,0.3101478547488149,True,True,0.46505656740128687,0.4779319510047941,3,1
control,0.27913306927393344,True,False,0.5533095918676724,0.4721797526960674,3,1
control,0.3070463762013268,False,True,0.47284361089174126,0.3838081836202034,3,1
control,0.27634173858119415,False,False,0.4065246517221643,0.17498490658879665,3,1
control,0.3039759124393136,False,True,0.5485335727047079,0.5138957634743616,3,1
control,0.2735783211953822,True,False,0.45116975408116106,0.2493473727925577,3,1
control,0.30093615331492046,True,False,0.5448383491105793,0.31688248498330573,3,1
control,0.33102976864641254,False,True,0.46545315432563095,0.31597340667993923,3,1
control,0.2979267917817713,False,True,0.4905773611961549,0.3857044665640504,3,1
control,0.26813411260359415,True,False,0.5084182416338296,0.37783514862648565,3,1
control,0.2949475238639536,False,False,0.4179653625041435,0.3402809587394911,3,1
control,0.324442276250349,True,True,0.4615286397894911,0.399766959354933,3,1
control,0.2919980486253141,True,False,0.5483638577217661,0.3672137925381117,3,1
control,0.3211978534878455,True,False,0.4179449501586201,0.30155453457911413,3,1
control,0.3533176388366301,True,False,0.49599276883081994,0.3111487090406694,3,1
control,0.38864940272029314,False,False,0.4716628564148101,0.433171796199531,3,1
control,0.4275143429923225,False,False,0.5216644918301497,0.4886710075635816,3,1
control,0.4702657772915548,False,True,0.563836965742609,0.461621654324071,3,1
control,0.4232391995623993,False,True,0.6663371670955729,0.5793594558240833,3,1
control,0.3809152796061594,False,True,0.2492754092258762,0.5467251936286425,3,1
control,0.34282375164554346,True,False,0.41078906305387725,0.2570610677661199,3,1
control,0.37710612681009786,False,True,0.5205258183629762,0.1731870138661089,3,1
control,0.3393955141290881,False,False,0.516555969756513,0.43463435253063043,3,1
control,0.3733350655419969,False,False,0.573176732166365,0.536268984876554,3,1
control,0.4106685720961966,False,True,0.4504428385977588,0.3614453414306359,3,1
control,0.36960171488657695,True,True,0.3584660957709208,0.6158091651398195,3,1
control,0.33264154339791924,True,False,0.573411185087022,0.35717927275515815,3,1
control,0.3659056977377112,True,True,0.5555092607021213,0.44945460133839693,3,1
control,0.3293151279639401,False,False,0.5147537575899997,0.18395467598132453,3,1
control,0.36224664076033414,False,False,0.5556538952008446,0.23549821060677373,3,1
control,0.39847130483636756,False,False,0.4836088619968984,0.5327811833071837,3,1
control,0.43831843532000436,True,True,0.521137784629853,0.40308599947513324,3,1
control,0.39448659178800394,True,False,0.5366829871123386,0.29906104008950474,3,1
control,0.43393525096680435,False,False,0.5526335068998249,0.45664571710330687,3,1
control,0.47732877606348484,False,True,0.5568247909529944,0.6736779537779323,3,1
interoceptive,0.3697259299173854,True,False,0.3895457422565864,0.2757079138551784,3,1
interoceptive,0.40669852290912395,True,True,0.6504108288984927,0.5214561219392713,3,1
interoceptive,0.36602867061821154,True,False,0.5474788444144686,0.25311790906385506,3,1
interoceptive,0.40263153768003274,True,True,0.3990905718253013,0.41469924407794084,3,1
interoceptive,0.36236838391202947,False,False,0.5114150800972392,0.38134808074339543,3,1
interoceptive,0.3986052223032324,True,True,0.523922924058198,0.36771711745663205,3,1
interoceptive,0.3587447000729092,False,True,0.5016536711433474,0.5683836922244262,3,1
interoceptive,0.32287023006561827,True,False,0.3213787900869735,0.23510390859828914,3,1
interoceptive,0.3551572530721801,False,True,0.4603554475053994,0.26524767598621457,3,1
interoceptive,0.3196415277649621,True,True,0.4421658790131161,0.177513909991675,3,1
interoceptive,0.28767737498846585,False,True,0.5890359940210314,0.12426389962956233,3,1
interoceptive,0.25890963748961926,True,False,0.30656953018094235,0.35978447598072966,3,1
interoceptive,0.2848006012385812,False,True,0.6183593500658059,0.35504745333397514,3,1
interoceptive,0.2563205411147231,True,True,0.5575790042918188,0.3438116627745737,3,1
interoceptive,0.2306884870032508,False,False,0.5794443052348385,0.1760529443594921,3,1
interoceptive,0.2537573357035759,True,True,0.6483378283716585,0.36826622377639867,3,1
interoceptive,0.22838160213321831,True,True,0.38697289160818826,0.09572042541233622,3,1
interoceptive,0.20554344191989649,True,False,0.6372628329086129,0.1329651220664658,3,1
interoceptive,0.22609778611188616,True,False,0.4519233548485959,0.2987411595706496,3,1
interoceptive,0.2487075647230748,True,False,0.693275973362003,0.3065300929583913,3,1
interoceptive,0.2735783211953823,True,True,0.5365853680988258,0.31491397759657935,3,1
interoceptive,0.24622048907584407,True,False,0.5427897010166973,0.08642378451269844,3,1
interoceptive,0.2708425379834285,False,False,0.5178643324419239,0.247968870840734,3,1
interoceptive,0.2979267917817714,False,True,0.4009420510887148,0.2939136483507281,3,1
interoceptive,0.26813411260359427,True,True,0.31700225844981383,0.03835794113246002,3,1
interoceptive,0.24132070134323486,False,False,0.4559667019691127,0.23254018936206072,3,1
interoceptive,0.26545277147755836,False,False,0.5199126673241609,0.1786657659850966,3,1
interoceptive,0.2919980486253142,True,False,0.37025802296280474,0.11520364610960626,3,1
interoceptive,0.32119785348784563,False,False,0.42896393617551354,0.3808961689901936,3,1
interoceptive,0.3533176388366302,False,True,0.4922451188456303,0.4239925156520431,3,1
interoceptive,0.3179858749529672,False,False,0.40333924562822443,0.3041543392778914,3,1
interoceptive,0.34978446244826394,False,False,0.44436477172188227,0.32799246211787964,3,1
interoceptive,0.3847629086930904,True,True,0.6138860647742521,0.5653886504519862,3,1
interoceptive,0.34628661782378134,False,False,0.5340807865698509,0.2103718008628085,3,1
interoceptive,0.3809152796061595,False,False,0.6676845848688248,0.30736469216353995,3,1
interoceptive,0.4190068075667755,True,False,0.5796716145857765,0.5267836392035441,3,1
interoceptive,0.4609074883234531,False,False,0.514772654380024,0.36094377798151633,3,1
interoceptive,0.5069982371557984,True,False,0.543463760672867,0.5333052248896331,3,1
interoceptive,0.5576980608713783,True,True,0.5582192133869671,0.5949812298679402,3,1
interoceptive,0.5019282547842405,False,False,0.547500907328951,0.5579760278764274,3,1
interoceptive,0.5521210802626646,True,False,0.728004978602976,0.5465209028355058,3,1
interoceptive,0.6073331882889311,True,True,0.4353201018900061,0.6504415721787971,3,1
interoceptive,0.546599869460038,False,True,0.8293743217243585,0.5594379990990781,3,1
interoceptive,0.49193988251403425,False,True,0.47864829192115843,0.3507484642294749,3,1
interoceptive,0.44274589426263083,False,True,0.5715668722974674,0.5654565414342082,3,1
interoceptive,0.3984713048363678,True,False,0.6121295078765183,0.22856922118390433,3,1
interoceptive,0.4383184353200046,True,True,0.5487323109195652,0.44359494897339125,3,1
interoceptive,0.39448659178800416,False,False,0.6429828003636162,0.29141747400740287,3,1
interoceptive,0.43393525096680463,False,False,0.5774732936946716,0.20959445220456366,3,1
interoceptive,0.4773287760634851,False,False,0.5581011736494478,0.4243216839529578,3,1
exteroceptive,0.28758072541345536,False,False,0.46972744324580773,0.30592929875345787,4,1
exteroceptive,0.3163387979548009,False,False,0.41906871304986143,0.3604378144352892,4,1
exteroceptive,0.347972677750281,False,False,0.6681560113751965,0.4170999285653604,4,1
exteroceptive,0.38276994552530913,True,True,0.29926349128593777,0.4151664584628933,4,1
exteroceptive,0.3444929509727782,False,False,0.526498003243649,0.23348478874347212,4,1
exteroceptive,0.37894224607005605,True,False,0.40107466610040937,0.4143771332517639,4,1
exteroceptive,0.4168364706770617,True,True,0.5662061198972594,0.6073879836020409,4,1
exteroceptive,0.37515282360935553,True,False,0.42357928071520123,0.5601774398294992,4,1
exteroceptive,0.41266810597029113,True,True,0.5030772296904185,0.5054830158625611,4,1
exteroceptive,0.37140129537326205,False,False,0.5318513111917147,0.3991063597177156,4,1
exteroceptive,0.4085414249105883,False,True,0.4344113850457559,0.3859609822094283,4,1
exteroceptive,0.36768728241952947,True,False,0.5497074086482074,0.33583810123416286,4,1
exteroceptive,0.40445601066148246,True,False,0.43975167135348164,0.3700495650251652,4,1
exteroceptive,0.44490161172763076,True,False,0.6136654196078073,0.482249733597292,4,1
exteroceptive,0.4893917729003939,False,True,0.5477214244191342,0.4274273742935295,4,1
exteroceptive,0.4404525956103545,False,True,0.5621898972970589,0.45939843505622335,4,1
exteroceptive,0.39640733604931905,True,True,0.6676405957724367,0.3104414310434906,4,1
exteroceptive,0.3567666024443871,True,True,0.5878166101337556,0.3658129158143721,4,1
exteroceptive,0.3210899421999484,False,False,0.503497873501523,0.3929982617275075,4,1
exteroceptive,0.35319893641994327,False,False,0.5321543025862808,0.43962096669390693,4,1
exteroceptive,0.3885188300619376,False,False,0.47563235130096637,0.31770063992088715,4,1
exteroceptive,0.4273707130681314,False,True,0.3866849957200408,0.42908889781972204,4,1
exteroceptive,0.38463364176131826,False,True,0.691194630491899,0.40622600366340833,4,1
exteroceptive,0.3461702775851864,True,True,0.4518798291418194,0.4752001100082296,4,1
exteroceptive,0.31155324982666777,False,False,0.5193897157679644,0.3122338376486007,4,1
exteroceptive,0.3427085748093346,True,True,0.4981900226299358,0.4616188880617811,4,1
exteroceptive,0.30843771732840114,False,False,0.4938357102085464,0.5637415372142102,4,1
exteroceptive,0.3392814890612413,True,True,0.44279318733641576,0.3920679012543873,4,1
exteroceptive,0.30535334015511717,True,False,0.48380467433474866,0.3986536218792864,4,1
exteroceptive,0.3358886741706289,True,True,0.3522839883653741,0.3048506642258939,4,1
exteroceptive,0.302299806753566,False,False,0.6009329122987478,0.14406783222202132,4,1
exteroceptive,0.33252978742892264,True,False,0.4004068719579584,0.46220764168213635,4,1
exteroceptive,0.36578276617181493,True,False,0.41815581568521676,0.5031188474532178,4,1
exteroceptive,0.4023610427889965,False,False,0.4641744985631585,0.308660050409702,4,1
exteroceptive,0.44259714706789616,False,True,0.48100986443870647,0.45143379370730663,4,1
exteroceptive,0.3983374323611065,True,True,0.47797639204951836,0.5710125065837266,4,1
exteroceptive,0.35850368912499586,False,False,0.4641927577655107,0.3299045886717436,4,1
exteroceptive,0.39435405803749546,False,True,0.5012813077381453,0.49815661309611226,4,1
exteroceptive,0.3549186522337459,False,False,0.3780443241689043,0.32427598459012774,4,1
exteroceptive,0.3904105174571205,False,False,0.603975318244435,0.523019464546881,4,1
exteroceptive,0.4294515692028326,False,False,0.391671554009165,0.5737714056565937,4,1
exteroceptive,0.4723967261231159,False,False,0.4940435363485191,0.44907818539811273,4,1
exteroceptive,0.5196363987354276,True,True,0.5834108080556811,0.5837385330791561,4,1
exteroceptive,0.4676727588618848,True,True,0.42779066364805285,0.5225270080644276,4,1
exteroceptive,0.42090548297569635,True,True,0.471524531071339,0.6260612026948253,4,1
exteroceptive,0.3788149346781267,False,False,0.30666211464183646,0.40072902807285093,4,1
exteroceptive,0.41669642814593943,False,True,0.8128549104416376,0.34142290228438715,4,1
exteroceptive,0.3750267853313455,False,False,0.24756124188439005,0.37316912780662187,4,1
exteroceptive,0.4125294638644801,True,True,0.6796110028256603,0.4389029124253679,4,1
exteroceptive,0.3712765174780321,True,True,0.5796165394292656,0.49310799668747535,4,1
control,0.42959589845713636,True,False,0.43469632789198975,0.44199759051697995,4,1
control,0.47255548830285005,False,False,0.5442049953265864,0.3945460723870914,4,1
control,0.5198110371331351,True,False,0.4275194081446217,0.4361450493462782,4,1
control,0.5717921408464487,True,False,0.3413512135729535,0.4924028969892873,4,1
control,0.6289713549310936,False,True,0.45607878521220646,0.5956891534091107,4,1
control,0.5660742194379842,False,True,0.45223799533243936,0.49458900742701234,4,1
control,0.5094667974941858,True,False,0.31128438738403547,0.4179121228500818,4,1
control,0.5604134772436044,True,True,0.5829973437893265,0.610209325389521,4,1
control,0.5043721295192439,True,True,0.44871264613475903,0.530123007318218,4,1
control,0.45393491656731955,False,True,0.431250816351549,0.443517874182382,4,1
control,0.4085414249105876,True,True,0.5218977993681223,0.4584114987044205,4,1
control,0.36768728241952886,True,False,0.5748781918376353,0.4998545954735763,4,1
control,0.4044560106614818,True,False,0.6434768721446469,0.48083717343718263,4,1
control,0.44490161172763,True,False,0.45692820867742634,0.2889512494821257,4,1
control,0.48939177290039304,False,False,0.517255473740986,0.5733752877494487,4,1
control,0.5383309501904324,True,False,0.35760722972306347,0.3633570314636355,4,1
control,0.5921640452094757,True,True,0.583308252816154,0.49914610325576114,4,1
control,0.5329476406885282,False,True,0.2730091362169553,0.48444886508844953,4,1
control,0.4796528766196754,False,False,0.5966338788530721,0.3389060686635112,4,1
control,0.527618164281643,True,True,0.506747697181314,0.47788834044551826,4,1
control,0.4748563478534787,False,False,0.6098792453341544,0.2018317404949015,4,1
control,0.5223419826388266,False,False,0.6481190417342709,0.5903446495969834,4,1
control,0.5745761809027093,False,False,0.4715133270424352,0.7225875258786145,4,1
control,0.6320337989929803,False,False,0.4400190091183882,0.5175107495639515,4,1
control,0.6952371788922784,True,True,0.6338762676320027,0.5657495491239267,4,1
control,0.6257134610030506,False,True,0.4560478688587166,0.5167321615685145,4,1
control,0.5631421149027456,False,False,0.3692050575396679,0.514663407148192,4,1
control,0.6194563263930202,False,True,0.42958053808895114,0.6249328831938594,4,1
control,0.5575106937537182,True,False,0.6096506572039135,0.4712799050562231,4,1
control,0.6132617631290901,False,True,0.381052064946537,0.717406014694483,4,1
control,0.551935586816181,False,False,0.6991121848477584,0.362730432636323,4,1
control,0.6071291454977992,False,True,0.577520323795917,0.6001777569500275,4,1
control,0.5464162309480193,False,False,0.3447756506438686,0.49827227532448826,4,1
control,0.6010578540428213,False,False,0.4148881201936858,0.6279405274300172,4,1
control,0.6611636394471034,True,True,0.5810361820860115,0.5024543637211532,4,1
control,0.5950472755023931,True,True,0.567264099161437,0.5672825007426567,4,1
control,0.5355425479521538,True,True,0.382971186412427,0.618199358677013,4,1
control,0.4819882931569385,False,False,0.7026059594472206,0.42905720300467703,4,1
control,0.5301871224726323,True,True,0.4680083645355908,0.5304104705629031,4,1
control,0.4771684102253691,True,True,0.5554321091115237,0.5301632379392897,4,1
control,0.4294515692028322,True,True,0.44108853875967446,0.3933405395803288,4,1
control,0.38650641228254895,False,True,0.5769248695723663,0.40680187560687747,4,1
control,0.34785577105429405,True,False,0.4578654807262105,0.4594787859091753,4,1
control,0.3826413481597235,False,True,0.5275059561493489,0.5406500379032216,4,1
control,0.34437721334375115,True,False,0.4915214558381713,0.4708089665598313,4,1
control,0.3788149346781263,False,True,0.3973267131966916,0.3524851317684,4,1
control,0.3409334412103137,False,False,0.5635638211434187,0.47929172361546757,4,1
control,0.3750267853313451,True,True,0.4753063855805436,0.4127248129498601,4,1
control,0.3375241067982106,False,False,0.5478893910889112,0.46843747212379444,4,1
control,0.3712765174780317,False,False,0.6077825224585507,0.44778887017704794,4,1
interoceptive,0.5250616536698337,True,True,0.4996376335337445,0.6005652649901658,4,1
interoceptive,0.4725554883028503,False,True,0.6512484490690906,0.45137282515541244,4,1
interoceptive,0.4252999394725653,False,False,0.606488021937511,0.36773548435063363,4,1
interoceptive,0.4678299334198218,True,True,0.4719950492799848,0.4954920269869413,4,1
interoceptive,0.42104694007783966,True,True,0.5321625861597781,0.40362718470950015,4,1
interoceptive,0.3789422460700557,True,True,0.4757205033510299,0.4470766891389272,4,1
interoceptive,0.34104802146305013,True,False,0.530827600495041,0.22708658777685536,4,1
interoceptive,0.3751528236093552,False,False,0.384189486691875,0.45840825913332955,4,1
interoceptive,0.41266810597029074,False,False,0.44410504270646406,0.3590932051877529,4,1
interoceptive,0.4539349165673199,False,True,0.6603537678497969,0.5092941499564556,4,1
interoceptive,0.4085414249105879,True,True,0.389175331330943,0.4743491346634518,4,1
interoceptive,0.36768728241952914,False,False,0.5057165282544936,0.3927416455217419,4,1
interoceptive,0.40445601066148207,False,True,0.5787954353491302,0.5090827891694799,4,1
interoceptive,0.3640104095953339,True,True,0.26477885058259276,0.3711400035584496,4,1
interoceptive,0.3276093686358005,True,True,0.6178421077394307,0.31540475537035223,4,1
interoceptive,0.2948484317722204,False,True,0.4857807745996817,0.2928502918800412,4,1
interoceptive,0.26536358859499837,True,False,0.4620860947625467,0.3167708537389632,4,1
interoceptive,0.2918999474544982,False,False,0.40718038772672716,0.14020818318173545,4,1
interoceptive,0.3210899421999481,False,False,0.5912140306134019,0.21899447530683896,4,1
interoceptive,0.35319893641994293,False,True,0.44473963423013174,0.3291354594519016,4,1
interoceptive,0.31787904277794865,False,False,0.5157206712854724,0.19487901921894096,4,1
interoceptive,0.3496669470557435,False,False,0.3870387125248498,0.41371439188645487,4,1
interoceptive,0.3846336417613179,False,False,0.3676582295395431,0.25640784658276106,4,1
interoceptive,0.42309700593744975,False,True,0.6184948973037805,0.5977635847310834,4,1
interoceptive,0.3807873053437048,True,False,0.5302920829562965,0.3475787574257846,4,1
interoceptive,0.4188660358780753,False,False,0.6288396535860974,0.4947700490944599,4,1
interoceptive,0.46075263946588285,True,True,0.5292230074872468,0.4883190963538057,4,1
interoceptive,0.41467737551929457,True,False,0.6773950196968269,0.39155605108916014,4,1
interoceptive,0.4561451130712241,False,True,0.6007522893693934,0.4270867703339441,4,1
interoceptive,0.41053060176410167,False,False,0.5441858499185407,0.39825191537752713,4,1
interoceptive,0.45158366194051186,True,False,0.47924200233830605,0.4451733769519246,4,1
interoceptive,0.4967420281345631,True,True,0.307559561553054,0.5611251738659359,4,1
interoceptive,0.4470678253211068,True,False,0.35864316812515606,0.4491393608944371,4,1
interoceptive,0.4917746078532175,False,False,0.37484929039662884,0.32947497699839223,4,1
interoceptive,0.5409520686385393,True,False,0.6952387428666864,0.4017258606015105,4,1
interoceptive,0.5950472755023932,False,True,0.22272842498641116,0.7713128094945177,4,1
interoceptive,0.535542547952154,False,True,0.4336875573136709,0.46262067394885187,4,1
interoceptive,0.4819882931569386,False,False,0.5009712733347482,0.481264219992319,4,1
interoceptive,0.5301871224726324,False,False,0.4405899950525991,0.6912312956131554,4,1
interoceptive,0.5832058347198957,False,True,0.5174633113686704,0.6481607142731491,4,1
interoceptive,0.5248852512479062,True,True,0.4077846972084043,0.36898535002728344,4,1
interoceptive,0.47239672612311556,False,True,0.5646671743155972,0.3940091676709633,4,1
interoceptive,0.425157053510804,False,True,0.3792423121254174,0.19972089297063578,4,1
interoceptive,0.3826413481597236,False,False,0.4457473647529421,0.27190157033016205,4,1
interoceptive,0.420905482975696,False,False,0.5306341975596277,0.41677386748243095,4,1
interoceptive,0.46299603127326566,False,True,0.38201742569990615,0.42228087872063874,4,1
interoceptive,0.4166964281459391,False,True,0.5049623222539162,0.5034809600351358,4,1
interoceptive,0.3750267853313452,True,True,0.540827616175168,0.3970506603181089,4,1
interoceptive,0.3375241067982107,True,False,0.4275129260680555,0.21979906774140479,4,1
interoceptive,0.3712765174780318,True,True,0.5283060121844022,0.3159020828264885,4,1
exteroceptive,0.3341488657302289,False,True,0.4488730414804627,0.28439323078825585,5,1
exteroceptive,0.300733979157206,False,False,0.5733594188850953,0.426818946456172,5,1
exteroceptive,0.3308073770729266,False,True,0.2569929445943393,0.37943579785301973,5,1
exteroceptive,0.297726639365634,False,False,0.707876525980939,0.31782558607215394,5,1
exteroceptive,0.3274993033021974,False,False,0.44241666480968506,0.4201598761463029,5,1
exteroceptive,0.3602492336324172,False,True,0.2970261959486588,0.4265807704854763,5,1
exteroceptive,0.3242243102691755,False,False,0.438049010133027,0.2350049890540756,5,1
exteroceptive,0.35664674129609303,True,False,0.3902680643093547,0.3990612134424977,5,1
exteroceptive,0.39231141542570236,True,False,0.391066648497274,0.36037360028167065,5,1
exteroceptive,0.43154255696827265,False,False,0.5689989836426144,0.5676672779759514,5,1
exteroceptive,0.47469681266509994,True,True,0.68670020042075,0.5589559060241979,5,1
exteroceptive,0.42722713139859,True,True,0.41565384054914717,0.5160034018728796,5,1
exteroceptive,0.384504418258731,False,True,0.44064122122853366,0.2819224955211971,5,1
exteroceptive,0.3460539764328579,True,True,0.43719674444766027,0.46779455473477816,5,1
exteroceptive,0.3114485787895721,False,False,0.4073662571098181,0.3195066316929424,5,1
exteroceptive,0.3425934366685293,False,False,0.3432308598071937,0.46623061182725245,5,1
exteroceptive,0.3768527803353823,True,True,0.5775461780182999,0.3382205547564289,5,1
exteroceptive,0.33916750230184406,True,True,0.5473085551324186,0.575277802934328,5,1
exteroceptive,0.30525075207165964,False,True,0.476832085587421,0.35639361967275285,5,1
exteroceptive,0.2747256768644937,True,False,0.4883326963027016,0.26653501524592516,5,1
exteroceptive,0.3021982445509431,False,True,0.4669584844925768,0.27706303607315785,5,1
exteroceptive,0.27197842009584877,True,True,0.35982492452277304,0.3374129862772839,5,1
exteroceptive,0.2447805780862639,False,False,0.6142553177110417,0.37504286022845046,5,1
exteroceptive,0.2692586358948903,True,False,0.5036807290845253,0.31996688522916183,5,1
exteroceptive,0.29618449948437936,True,False,0.3821356337886494,0.3717293003453174,5,1
exteroceptive,0.32580294943281735,False,False,0.6590095521568361,0.3613319282700726,5,1
exteroceptive,0.3583832443760991,True,True,0.6581062070435719,0.3958313072633112,5,1
exteroceptive,0.32254491993848916,True,False,0.5422545570679607,0.3617768996763667,5,1
exteroceptive,0.3547994119323381,True,False,0.6032493540387631,0.3965333284120514,5,1
exteroceptive,0.39027935312557194,False,False,0.6525785372508301,0.40112115945793514,5,1
exteroceptive,0.42930728843812915,True,False,0.3143757064121081,0.5286662377748961,5,1
exteroceptive,0.4722380172819421,False,False,0.43918287373995174,0.45965308163005936,5,1
exteroceptive,0.5194618190101363,False,False,0.510936411546866,0.7138208761449113,5,1
exteroceptive,0.57140800091115,True,False,0.38090868597239164,0.5592126546502628,5,1
exteroceptive,0.628548801002265,True,True,0.4462968713506431,0.623425639124442,5,1
exteroceptive,0.5656939209020385,False,True,0.35803522248791664,0.5610403639691227,5,1
exteroceptive,0.5091245288118347,True,True,0.4952463720309164,0.513290539674688,5,1
exteroceptive,0.4582120759306512,True,False,0.4796401576846462,0.2944668280065609,5,1
exteroceptive,0.5040332835237163,True,False,0.43352010595858115,0.7050996912489473,5,1
exteroceptive,0.5544366118760881,True,False,0.5697367808752225,0.4851288584067217,5,1
exteroceptive,0.609880273063697,True,False,0.3677919777202087,0.45824634485307825,5,1
exteroceptive,0.6708683003700667,False,True,0.3684782461506805,0.5960318485438296,5,1
exteroceptive,0.6037814703330601,True,True,0.39100756349659266,0.587445101503394,5,1
exteroceptive,0.543403323299754,True,True,0.49829022795275446,0.5993723378449078,5,1
exteroceptive,0.4890629909697787,True,True,0.543566077365752,0.5134695348709182,5,1
exteroceptive,0.4401566918728008,True,False,0.47345475061270614,0.3873559381581982,5,1
exteroceptive,0.48417236106008094,True,True,0.4179104068981989,0.5632571849967359,5,1
exteroceptive,0.43575512495407287,False,True,0.6685737092842559,0.5964801536839158,5,1
exteroceptive,0.3921796124586656,True,True,0.47563510297996253,0.3553123416315451,5,1
exteroceptive,0.35296165121279904,False,False,0.33875598164511866,0.3716122418672256,5,1
control,0.4084041692258349,True,True,0.4167384954039033,0.35670081683693794,5,1
control,0.3675637523032514,False,True,0.40822345516492875,0.47273197614191875,5,1
control,0.33080737707292623,False,False,0.47595373112137707,0.36341818505297907,5,1
control,0.3638881147802189,False,True,0.6332749407497523,0.4407560134341348,5,1
control,0.327499303302197,True,False,0.47145621945742994,0.31260668234110645,5,1
control,0.36024923363241673,False,False,0.5457980017278459,0.4341950608058671,5,1
control,0.39627415699565843,False,False,0.5113783744121797,0.5331250582105367,5,1
control,0.43590157269522434,False,False,0.38671007287833925,0.5475806963546982,5,1
control,0.4794917299647468,True,False,0.5315428235020844,0.44706742406203703,5,1
control,0.5274409029612216,True,False,0.49323783706704805,0.49984214550528977,5,1
control,0.5801849932573439,False,False,0.6445435359915204,0.61201100204033,5,1
control,0.6382034925830783,True,False,0.2594391771254865,0.5119263798678106,5,1
control,0.7020238418413862,False,True,0.3679598926253155,0.7312159102100169,5,1
control,0.6318214576572476,True,False,0.5440171292748889,0.6327521868125807,5,1
control,0.6950036034229724,True,True,0.5588130486420539,0.4838606733506,5,1
control,0.6255032430806752,True,False,0.5103158732014149,0.5483778368297493,5,1
control,0.6880535673887428,True,True,0.5664835989361774,0.5206073693907839,5,1
control,0.6192482106498686,False,True,0.40560955658631864,0.5379729853467274,5,1
control,0.5573233895848817,True,False,0.405191388754108,0.5802577349324411,5,1
control,0.6130557285433699,False,True,0.5815836480488616,0.5913284526851024,5,1
control,0.5517501556890329,False,True,0.3796515234936187,0.4691801295396784,5,1
control,0.4965751401201296,True,True,0.704002791513269,0.3493600931412745,5,1
control,0.44691762610811664,True,False,0.3080641000280382,0.47095604619883136,5,1
control,0.49160938871892834,True,False,0.4714762483709342,0.4831516323125497,5,1
control,0.5407703275908212,True,True,0.48767570239206076,0.3798478675549888,5,1
control,0.4866932948317391,True,False,0.42361511089576026,0.5056214990087303,5,1
control,0.5353626243149131,True,True,0.5125950259705683,0.5907578882050573,5,1
control,0.4818263618834218,True,True,0.6407609886178843,0.4584761101223221,5,1
control,0.43364372569507964,True,True,0.5385436301837837,0.527244272411331,5,1
control,0.39027935312557166,True,True,0.5252090062284649,0.5005887618073929,5,1
control,0.3512514178130145,True,False,0.43450041287322466,0.4471111887089997,5,1
control,0.386376559594316,True,True,0.5309996772887627,0.31438745792448686,5,1
control,0.3477389036348844,True,False,0.3129086124061686,0.5059718514737068,5,1
control,0.3825127939983729,False,False,0.41759879530595617,0.510653182037998,5,1
control,0.4207640733982102,False,True,0.4442810846673897,0.6445904069376126,5,1
control,0.3786876660583892,True,False,0.4349456555262889,0.5655504099429594,5,1
control,0.41655643266422815,False,False,0.31503972670165103,0.2714200028787515,5,1
control,0.458212075930651,False,False,0.5023407308979788,0.6687212843960808,5,1
control,0.5040332835237161,False,True,0.6487892036295769,0.6171336493699497,5,1
control,0.4536299551713445,False,True,0.6697224884666301,0.43386605289655705,5,1
control,0.40826695965421006,False,True,0.4081566429911172,0.4905479582776809,5,1
control,0.36744026368878907,False,False,0.47306486805165004,0.36245695253526644,5,1
control,0.404184290057668,True,True,0.5130560224041036,0.43782231716012393,5,1
control,0.3637658610519012,True,False,0.4863272039811319,0.505488390551133,5,1
control,0.4001424471570913,True,False,0.505953695934349,0.39284461539050575,5,1
control,0.4401566918728005,False,False,0.4421967239651411,0.4503486054084905,5,1
control,0.4841723610600806,True,True,0.49153561698898107,0.5673159476543346,5,1
control,0.43575512495407254,False,False,0.5378032668088536,0.4480972294735628,5,1
control,0.47933063744947985,True,False,0.4115090196957595,0.4961219422975605,5,1
control,0.5272637011944279,False,True,0.44344492605212943,0.7617051389662168,5,1
interoceptive,0.3341488657302286,True,False,0.49625618327830806,0.31831378303954416,5,1
interoceptive,0.3675637523032515,True,False,0.6248684756046029,0.4386068743976588,5,1
interoceptive,0.40432012753357666,False,False,0.42876162073295565,0.24607323139223652,5,1
interoceptive,0.4447521402869344,False,True,0.5527711919550184,0.4201614841132695,5,1
interoceptive,0.40027692625824096,True,False,0.5148371386278959,0.3198516472577542,5,1
interoceptive,0.4403046188840651,True,True,0.578341229326892,0.42691088614777806,5,1
interoceptive,0.3962741569956586,False,False,0.5261126105006118,0.38271466354024214,5,1
interoceptive,0.4359015726952245,True,True,0.6266435724875631,0.3729486624818597,5,1
interoceptive,0.3923114154257021,False,False,0.32441675442743917,0.37370132861000643,5,1
interoceptive,0.4315425569682723,True,False,0.5429996345258408,0.37378341726792913,5,1
interoceptive,0.4746968126650996,True,False,0.5368258981096269,0.359188447331742,5,1
interoceptive,0.5221664939316096,True,True,0.3934186644868268,0.582121646876846,5,1
interoceptive,0.4699498445384487,True,True,0.4341627162796313,0.46943278524404775,5,1
interoceptive,0.4229548600846038,False,False,0.4588733489588846,0.32410470855733836,5,1
interoceptive,0.4652503460930642,True,True,0.5334759554784528,0.45960283209742286,5,1
interoceptive,0.4187253114837578,True,False,0.4470370665594255,0.512138662566595,5,1
interoceptive,0.4605978426321336,False,True,0.3681801407653952,0.4769075887166784,5,1
interoceptive,0.41453805836892027,False,True,0.35370361535641665,0.4369760034167571,5,1
interoceptive,0.37308425253202826,True,False,0.4950424774575012,0.3318782626586918,5,1
interoceptive,0.41039267778523114,True,True,0.4263623973447485,0.31396769170875266,5,1
interoceptive,0.369353410006708,False,False,0.4901481733417785,0.4448261753076895,5,1
interoceptive,0.4062887510073788,False,False,0.5595695567064884,0.4060117444317852,5,1
interoceptive,0.44691762610811675,True,False,0.437581042055305,0.3909528015176633,5,1
interoceptive,0.49160938871892845,True,True,0.5596965185319912,0.47826506179677275,5,1
interoceptive,0.44244844984703563,False,True,0.6260686553321758,0.5401227240127858,5,1
interoceptive,0.3982036048623321,False,True,0.3809407255020294,0.4249976792645864,5,1
interoceptive,0.35838324437609886,False,True,0.4771929863973995,0.35448642179497253,5,1
interoceptive,0.322544919938489,True,False,0.45867479814620804,0.3735659981462499,5,1
interoceptive,0.35479941193233794,True,False,0.3558633172762727,0.1567091992703621,5,1
interoceptive,0.39027935312557177,True,False,0.6374053598308193,0.44781447928125734,5,1
interoceptive,0.429307288438129,False,False,0.44724098836404724,0.3639932607852792,5,1
interoceptive,0.4722380172819419,True,True,0.6854792391461425,0.4824239450318091,5,1
interoceptive,0.42501421555374774,True,False,0.4792197370725,0.42184804374239665,5,1
interoceptive,0.46751563710912253,False,True,0.4431545701408943,0.4635468426434568,5,1
interoceptive,0.42076407339821026,False,False,0.5980413106373418,0.33130589994572535,5,1
interoceptive,0.4628404807380313,False,False,0.5773204224253855,0.3148263779593974,5,1
interoceptive,0.5091245288118345,False,True,0.6700092685094174,0.5835019902821227,5,1
interoceptive,0.458212075930651,False,True,0.5898408978120044,0.4107507061097241,5,1
interoceptive,0.4123908683375859,False,True,0.5595180517155203,0.4071084197124528,5,1
interoceptive,0.3711517815038273,True,False,0.6567554805640939,0.13058230583920846,5,1
interoceptive,0.4082669596542101,True,False,0.5271425931129099,0.3542792075382117,5,1
interoceptive,0.44909365561963116,False,False,0.613002626309806,0.4176555973416084,5,1
interoceptive,0.49400302118159434,False,True,0.5752303593850103,0.5272025258303397,5,1
interoceptive,0.4446027190634349,True,False,0.4755199799841553,0.40510902724800785,5,1
interoceptive,0.48906299096977845,True,True,0.4723508867063357,0.36506813248422354,5,1
interoceptive,0.4401566918728006,True,False,0.5158365433238903,0.2796882578603858,5,1
interoceptive,0.4841723610600807,False,True,0.47333582545367386,0.5276643933871614,5,1
interoceptive,0.43575512495407265,False,False,0.42021588716121905,0.4478246017914989,5,1
interoceptive,0.47933063744947996,True,False,0.6129980289063554,0.44730479217204777,5,1
interoceptive,0.527263701194428,True,False,0.31161224737684523,0.6058475719012617,5,1
interoceptive,0.5799900713138708,True,False,0.3702876031569739,0.665271566413736,6,1
interoceptive,0.637989078445258,True,False,0.45668648176358123,0.5889490221055094,6,1
interoceptive,0.7017879862897839,False,False,0.5308750465085953,0.6160985245596534,6,1
interoceptive,0.7719667849187624,False,True,0.5659392796949665,1.0,6,1
interoceptive,0.6947701064268862,True,True,0.5145629307862991,0.5806741252270431,6,1
interoceptive,0.6252930957841976,False,True,0.620979747398963,0.6575051812719841,6,1
interoceptive,0.5627637862057778,False,True,0.42487681531997246,0.5763500475883289,6,1
interoceptive,0.5064874075852001,False,False,0.6409620349128052,0.47576137473400704,6,1
interoceptive,0.5571361483437202,False,False,0.469457680715582,0.43088197306280224,6,1
interoceptive,0.6128497631780923,True,True,0.6199913496948563,0.5997857492373647,6,1
interoceptive,0.5515647868602831,False,False,0.4139365054063776,0.4909010110354608,6,1
interoceptive,0.6067212655463115,False,True,0.4772988075594366,0.5741058615332333,6,1
interoceptive,0.5460491389916803,False,False,0.30648127336797826,0.47465160531645195,6,1
interoceptive,0.6006540528908484,True,False,0.3821600647252613,0.6367295251228698,6,1
interoceptive,0.6607194581799333,True,False,0.4954320677359432,0.5720090624301409,6,1
interoceptive,0.7267914039979266,True,True,0.5071484505211935,0.7667731258042727,6,1
interoceptive,0.654112263598134,False,True,0.4565059584152606,0.6718619115497148,6,1
interoceptive,0.5887010372383207,True,False,0.5886891951428874,0.5434156536811187,6,1
interoceptive,0.6475711409621528,True,False,0.37550052657070737,0.5886389726240903,6,1
interoceptive,0.7123282550583682,False,True,0.48452738450848004,0.5635549170703915,6,1
interoceptive,0.6410954295525314,False,True,0.4451198759167257,0.6672301466151848,6,1
interoceptive,0.5769858865972782,False,True,0.5653980825751367,0.3949518854831606,6,1
interoceptive,0.5192872979375505,False,False,0.5527686355756535,0.6487871706938563,6,1
interoceptive,0.5712160277313055,True,True,0.4140833276480293,0.5232549472179188,6,1
interoceptive,0.514094424958175,False,False,0.589822356932997,0.332876609509114,6,1
interoceptive,0.5655038674539926,False,True,0.45899517111509125,0.5227750470955778,6,1
interoceptive,0.5089534807085934,False,True,0.5295107673306744,0.5350908992230754,6,1
interoceptive,0.45805813263773404,True,True,0.5781750262180054,0.6428032841935856,6,1
interoceptive,0.4122523193739606,False,True,0.4159605195747483,0.336783589425641,6,1
interoceptive,0.37102708743656454,False,True,0.5116859215890321,0.25460995358438515,6,1
interoceptive,0.3339243786929081,False,True,0.43981850873829326,0.1992578617284965,6,1
interoceptive,0.3005319408236173,False,False,0.28204623055190337,0.35109406438576496,6,1
interoceptive,0.330585134905979,True,True,0.594493724323625,0.30934560398449146,6,1
interoceptive,0.2975266214153811,True,True,0.504728341204296,0.28370123573318595,6,1
interoceptive,0.267773959273843,False,True,0.5070334628665123,0.2949756719917962,6,1
interoceptive,0.24099656334645872,True,True,0.35184009260528104,0.28204626145438616,6,1
interoceptive,0.21689690701181286,True,False,0.4342418759030526,0.06522561318511716,6,1
interoceptive,0.23858659771299415,True,False,0.48252544267499936,0.0522504977569804,6,1
interoceptive,0.2624452574842936,True,False,0.4047345971351912,0.12113944175388343,6,1
interoceptive,0.288689783232723,True,False,0.3955921483777962,0.19796461826521658,6,1
interoceptive,0.31755876155599533,True,False,0.5172269725833943,0.25546839217401396,6,1
interoceptive,0.3493146377115949,False,False,0.4432472734167759,0.2324628158486568,6,1
interoceptive,0.3842461014827544,False,False,0.4211507403171748,0.1754908663292595,6,1
interoceptive,0.42267071163102987,True,True,0.6269088483649565,0.38409068925086914,6,1
interoceptive,0.3804036404679269,False,True,0.5899687174308186,0.3314588537156178,6,1
interoceptive,0.34236327642113423,True,False,0.48323795211547244,0.38718604994336603,6,1
interoceptive,0.37659960406324766,False,False,0.4908015486397081,0.3081193371053735,6,1
interoceptive,0.41425956446957246,False,False,0.3575055318257433,0.3534997688771822,6,1
interoceptive,0.45568552091652975,True,False,0.44878076702763336,0.42303397647720503,6,1
interoceptive,0.5012540730081828,False,True,0.5468956529256186,0.6346793352534411,6,1
exteroceptive,0.38825781633407896,True,False,0.4599798271661438,0.3483833858549837,6,1
exteroceptive,0.4270835979674869,False,False,0.597146086894825,0.5160271673274548,6,1
exteroceptive,0.46979195776423566,True,False,0.47864238429640404,0.4944164964857237,6,1
exteroceptive,0.5167711535406593,False,False,0.4705255788416603,0.3438793339321613,6,1
exteroceptive,0.5684482688947252,True,False,0.43939248158106475,0.5486682908286276,6,1
exteroceptive,0.6252930957841978,True,False,0.5248815834516254,0.6002246371091501,6,1
exteroceptive,0.6878224053626176,True,True,0.5108257945834843,0.7880655781531029,6,1
exteroceptive,0.6190401648263559,False,False,0.47083358197728925,0.5813883473390599,6,1
exteroceptive,0.6809441813089916,True,True,0.708313221678324,0.5526028128421915,6,1
exteroceptive,0.6128497631780925,True,True,0.36406208698776193,0.5923899246939368,6,1
exteroceptive,0.5515647868602832,True,True,0.4820037583585191,0.4491293025554904,6,1
exteroceptive,0.4964083081742549,False,False,0.432738648872688,0.5087855711876202,6,1
exteroceptive,0.5460491389916804,True,False,0.39627074229873943,0.6594695775704236,6,1
exteroceptive,0.6006540528908485,False,True,0.43822657750502475,0.7202057869708218,6,1
exteroceptive,0.5405886476017636,False,True,0.47419297620202844,0.5874999131993766,6,1
exteroceptive,0.48652978284158727,True,False,0.5849857814442979,0.6037291219933503,6,1
exteroceptive,0.535182761125746,True,False,0.5053534777030054,0.5396576329304732,6,1
exteroceptive,0.5887010372383207,True,False,0.4912332905480108,0.4395155233779596,6,1
exteroceptive,0.6475711409621528,True,True,0.397074438895731,0.608123012742358,6,1
exteroceptive,0.5828140268659375,True,True,0.4822883959541094,0.6357516208560823,6,1
exteroceptive,0.5245326241793438,False,True,0.5068942950668198,0.7218335392080621,6,1
exteroceptive,0.4720793617614094,True,False,0.5167355066260553,0.48808512493959927,6,1
exteroceptive,0.5192872979375504,False,True,0.43237145954412926,0.5927388318091652,6,1
exteroceptive,0.46735856814379534,True,True,0.38945124623790867,0.39410517588314703,6,1
exteroceptive,0.4206227113294158,True,True,0.503097411620166,0.41224933209796183,6,1
exteroceptive,0.3785604401964742,False,True,0.4376152117030971,0.45059496888352735,6,1
exteroceptive,0.3407043961768268,False,False,0.3848738557412019,0.23177874451716304,6,1
exteroceptive,0.3747748357945095,False,False,0.48858336796545104,0.4315714195866172,6,1
exteroceptive,0.41225231937396045,False,True,0.5814178183025335,0.4281858760666179,6,1
exteroceptive,0.37102708743656443,False,False,0.5540000462412564,0.5248779769278186,6,1
exteroceptive,0.4081297961802209,False,False,0.8331947236265604,0.5355157100783619,6,1
exteroceptive,0.448942775798243,True,True,0.3595427694767279,0.46144205497090945,6,1
exteroceptive,0.4040484982184187,True,False,0.5466273929726181,0.416737599353443,6,1
exteroceptive,0.4444533480402606,True,True,0.4627731955463521,0.3613335543819269,6,1
exteroceptive,0.4000080132362345,False,False,0.5299758426470539,0.5474961434300993,6,1
exteroceptive,0.440008814559858,True,True,0.4262623689271813,0.47926159324623113,6,1
exteroceptive,0.3960079331038722,True,True,0.4834208356139369,0.2135781864504581,6,1
exteroceptive,0.356407139793485,True,True,0.5092676862913008,0.2232181636412943,6,1
exteroceptive,0.3207664258141365,True,False,0.4400212119389192,0.2968788495373529,6,1
exteroceptive,0.3528430683955502,False,True,0.3304426841824287,0.46671555504140444,6,1
exteroceptive,0.31755876155599516,False,False,0.48804475564312044,0.44491790306687806,6,1
exteroceptive,0.3493146377115947,True,False,0.4566975825610545,0.4197949385768197,6,1
exteroceptive,0.38424610148275423,False,True,0.5986094078088302,0.26493794373383805,6,1
exteroceptive,0.3458214913344788,True,True,0.3164648890928468,0.22792717705076018,6,1
exteroceptive,0.31123934220103094,False,True,0.6590323264808224,0.536508558079752,6,1
exteroceptive,0.2801154079809279,True,False,0.5064366403508517,0.39609306475690176,6,1
exteroceptive,0.3081269487790207,False,True,0.5788373644459813,0.3815583504428451,6,1
exteroceptive,0.27731425390111863,False,False,0.6799133223144606,0.2458107964329078,6,1
exteroceptive,0.3050456792912305,False,True,0.6661640804039171,0.4770619024704397,6,1
exteroceptive,0.27454111136210746,False,True,0.4235068342634919,0.2705065951190532,6,1
control,0.47453733107498514,True,True,0.4994160328348096,0.5925781038509426,6,1
control,0.42708359796748663,True,False,0.45071079910223266,0.44525611736993176,6,1
control,0.4697919577642353,True,False,0.2997749651785881,0.3736785447265006,6,1
control,0.516771153540659,True,True,0.4609796879497169,0.6056773738387063,6,1
control,0.46509403818659306,True,True,0.5237021397822206,0.6786623413850286,6,1
control,0.41858463436793375,False,True,0.5824411515659226,0.35322879306259747,6,1
control,0.37672617093114036,True,False,0.5368152915046502,0.4592542839582937,6,1
control,0.41439878802425445,False,False,0.4805305232390282,0.3939996835158228,6,1
control,0.45583866682667995,False,False,0.4379740390685589,0.46489479770043873,6,1
control,0.501422533509348,True,True,0.606866793077472,0.5885133189912326,6,1
control,0.45128028015841315,False,False,0.5388432124249601,0.5027138437809393,6,1
control,0.4964083081742545,True,False,0.41433407899354496,0.42115181187776873,6,1
control,0.5460491389916801,False,False,0.5863008736091964,0.7658538696069728,6,1
control,0.6006540528908482,True,True,0.5139142459876657,0.538033241219888,6,1
control,0.5405886476017634,True,True,0.4804656005647788,0.5169862834247805,6,1
control,0.48652978284158704,False,False,0.386595749349122,0.571193837705236,6,1
control,0.5351827611257458,False,False,0.4733332495702594,0.5056545488162312,6,1
control,0.5887010372383205,True,False,0.5645523774995422,0.5764657802757706,6,1
control,0.6475711409621525,False,True,0.4101868438823933,0.47872514467200833,6,1
control,0.5828140268659373,True,True,0.430185125645555,0.6051790720616699,6,1
control,0.5245326241793435,False,True,0.4020821343959124,0.4796938694879257,6,1
control,0.4720793617614092,False,False,0.48654375858828125,0.38696132081286494,6,1
control,0.5192872979375501,False,True,0.5251824225565742,0.8117342722201087,6,1
control,0.4673585681437951,True,False,0.6763523456359568,0.368540097776523,6,1
control,0.5140944249581747,True,False,0.608663045305997,0.49942781509820855,6,1
control,0.5655038674539922,False,False,0.490070716906036,0.4461715324947624,6,1
control,0.6220542541993914,False,True,0.3582224752053153,0.5529682050740283,6,1
control,0.5598488287794523,True,False,0.47430878402174625,0.4503450066991556,6,1
control,0.6158337116573975,True,True,0.7719979180862568,0.6201509018555147,6,1
control,0.5542503404916578,False,False,0.26367912236499247,0.35079924019947684,6,1
control,0.6096753745408237,True,True,0.7093631772051323,0.6021082992511331,6,1
control,0.5487078370867413,True,False,0.4302451856221692,0.4945212450571375,6,1
control,0.6035786207954155,True,True,0.5809008767535406,0.5080729501283786,6,1
control,0.5432207587158739,True,False,0.2622094009716113,0.3730422815435949,6,1
control,0.5975428345874614,True,True,0.5149831413926684,0.4693895331141323,6,1
control,0.5377885511287153,True,True,0.6197095700873035,0.536924729124948,6,1
control,0.48400969601584376,True,True,0.41796164623520804,0.5932883172059475,6,1
control,0.4356087264142594,True,True,0.494661262675011,0.35496657359805905,6,1
control,0.39204785377283347,True,True,0.300826104813954,0.3109863096572494,6,1
control,0.35284306839555013,True,False,0.5982077597643409,0.42111055601506436,6,1
control,0.38812737523510515,True,True,0.461109950505537,0.44007585404811955,6,1
control,0.34931463771159466,False,True,0.43401548669529855,0.49376426517364824,6,1
control,0.3143831739404352,False,False,0.5426310207041688,0.45071713376730865,6,1
control,0.34582149133447876,True,True,0.5652471344394348,0.2907312433527451,6,1
control,0.3112393422010309,True,True,0.46461664977807055,0.3108855922661474,6,1
control,0.2801154079809278,False,False,0.540766238261725,0.34966109910996346,6,1
control,0.30812694877902064,True,True,0.5232375989129543,0.3033774273454761,6,1
control,0.2773142539011186,True,True,0.4407197289435927,0.3436663303885788,6,1
control,0.24958282851100672,True,True,0.42359777466458765,0.4476562514589004,6,1
control,0.22462454565990606,True,False,0.37370447760787884,0.325896774084595,6,1
exteroceptive,0.24708700022589672,True,False,0.39166809310701456,0.21125222101125424,7,1
exteroceptive,0.2717957002484864,True,False,0.6699595278467764,0.09374581097815274,7,1
exteroceptive,0.2989752702733351,False,True,0.5439007309206045,0.4844474289939743,7,1
exteroceptive,0.2690777432460016,False,True,0.38042400999240034,0.3034518552183486,7,1
exteroceptive,0.24216996892140144,True,True,0.5162527291351654,0.4189542570772863,7,1
exteroceptive,0.2179529720292613,True,False,0.5929447031088829,0.27764804878498994,7,1
exteroceptive,0.23974826923218745,False,False,0.3413658105186529,0.47951686557007356,7,1
exteroceptive,0.26372309615540623,False,False,0.5409914218271106,0.2813966294387922,7,1
exteroceptive,0.2900954057709469,True,True,0.5556236139493329,0.35756273740173516,7,1
exteroceptive,0.2610858651938522,True,True,0.48447542382631104,0.42581132989361603,7,1
exteroceptive,0.23497727867446697,True,True,0.4587816671829616,0.3312626330488702,7,1
exteroceptive,0.21147955080702027,True,False,0.5773164524356802,0.3190517197541947,7,1
exteroceptive,0.23262750588772232,True,True,0.6030657495873978,0.4169746141892035,7,1
exteroceptive,0.2093647552989501,True,True,0.7029393211859191,0.37291941000938916,7,1
exteroceptive,0.1884282797690551,True,False,0.5507063147746827,0.18229884813824274,7,1
exteroceptive,0.20727110774596064,True,False,0.5682622603262304,0.4026240464776304,7,1
exteroceptive,0.2279982185205567,False,False,0.4389833956946951,0.28263451835130476,7,1
exteroceptive,0.2507980403726124,False,False,0.6413093186982894,0.19434465726903477,7,1
exteroceptive,0.2758778444098737,False,False,0.5198723076233621,0.18750461130219767,7,1
exteroceptive,0.3034656288508611,False,False,0.4280124657832931,0.3779439223043005,7,1
exteroceptive,0.33381219173594723,True,False,0.451715849520305,0.36353782640071697,7,1
exteroceptive,0.367193410909542,True,True,0.6183772992123564,0.2500040487728433,7,1
exteroceptive,0.3304740698185878,True,True,0.6917657104881205,0.6373078192678088,7,1
exteroceptive,0.297426662836729,False,True,0.5886955119039505,0.5516965914214771,7,1
exteroceptive,0.26768399655305614,True,False,0.4242362000420694,0.19750043426681846,7,1
exteroceptive,0.2944523962083618,True,True,0.5734743255301844,0.30582722155710257,7,1
exteroceptive,0.2650071565875256,True,False,0.6746730385367031,0.2886866321824803,7,1
exteroceptive,0.29150787224627817,False,False,0.6610400327049681,0.31030357461737645,7,1
exteroceptive,0.320658659470906,False,True,0.5453245630740089,0.20382246159237158,7,1
exteroceptive,0.2885927935238154,False,True,0.46704326473248114,0.23834726345927715,7,1
exteroceptive,0.25973351417143387,True,False,0.4856075209300758,0.2965636719865748,7,1
exteroceptive,0.2857068655885773,False,False,0.7034125252956138,0.24506957463597462,7,1
exteroceptive,0.314277552147435,True,False,0.47731687674160395,0.3262340052981638,7,1
exteroceptive,0.3457053073621786,True,False,0.5532599231956108,0.28849472722704855,7,1
exteroceptive,0.3802758380983965,False,True,0.41281791416016933,0.35649769635624873,7,1
exteroceptive,0.3422482542885569,True,True,0.6607513530473468,0.4544563579634088,7,1
exteroceptive,0.3080234288597012,False,True,0.5938773023322053,0.3208401243526498,7,1
exteroceptive,0.2772210859737311,True,False,0.35776557996902125,0.2835189841377077,7,1
exteroceptive,0.3049431945711042,True,False,0.46608896516559706,0.4747257849362041,7,1
exteroceptive,0.33543751402821465,True,False,0.5717858322079984,0.32517903395981956,7,1
exteroceptive,0.36898126543103615,False,True,0.5236538550170289,0.43618509322863924,7,1
exteroceptive,0.33208313888793256,False,False,0.5685854889294962,0.3245338640310624,7,1
exteroceptive,0.36529145277672587,True,True,0.5313434706480434,0.45773962659493445,7,1
exteroceptive,0.3287623074990533,True,True,0.5487207617241432,0.31073714561324706,7,1
exteroceptive,0.29588607674914796,True,True,0.5354437832373233,0.4998568028254445,7,1
exteroceptive,0.2662974690742332,False,False,0.7309885676275677,0.17590356984723657,7,1
exteroceptive,0.29292721598165655,False,True,0.6005748607629524,0.2941348761057336,7,1
exteroceptive,0.2636344943834909,False,True,0.5240804269767138,0.4012175683585482,7,1
exteroceptive,0.2372710449451418,True,False,0.42709283774089557,0.16097486933291666,7,1
exteroceptive,0.260998149439656,False,True,0.4490322013938481,0.30493620380964315,7,1
interoceptive,0.45112866570736454,False,True,0.4400755201300942,0.40790488524183677,7,1
interoceptive,0.4060157991366281,False,False,0.38522255853990206,0.3164497434145583,7,1
interoceptive,0.446617379050291,False,False,0.5375615554278079,0.3892308923138107,7,1
interoceptive,0.4912791169553201,True,True,0.6592897972690681,0.496082288132066,7,1
interoceptive,0.4421512052597881,True,False,0.44899022617145795,0.4397806248960569,7,1
interoceptive,0.486366325785767,False,False,0.5277205191367331,0.4325214569898205,7,1
interoceptive,0.5350029583643438,False,False,0.6584316006590456,0.3468049276657347,7,1
interoceptive,0.5885032542007782,False,True,0.5758155647118586,0.5632406968310842,7,1
interoceptive,0.5296529287807004,False,False,0.40458306953399426,0.577126917045431,7,1
interoceptive,0.5826182216587704,False,False,0.5395653233091663,0.5294846735349167,7,1
interoceptive,0.6408800438246475,False,False,0.4802122341242569,0.6425948054805858,7,1
interoceptive,0.7049680482071122,False,False,0.43191791811587044,0.6596106233134941,7,1
interoceptive,0.7754648530278235,True,True,0.5256164989320197,0.7744609985191805,7,1
interoceptive,0.6979183677250412,True,False,0.42871560490932803,0.721005079564023,7,1
interoceptive,0.7677102044975455,True,True,0.5619613226397671,0.7714830231748315,7,1
interoceptive,0.690939184047791,True,False,0.42671435897513954,0.7352420177079383,7,1
interoceptive,0.7600331024525702,False,True,0.6587008857760563,0.6134211782508086,7,1
interoceptive,0.6840297922073132,False,True,0.4188795939312278,0.6773062771207949,7,1
interoceptive,0.6156268129865818,True,False,0.426992120827843,0.6207320994288679,7,1
interoceptive,0.6771894942852401,True,False,0.5137540017498737,0.634947686282781,7,1
interoceptive,0.7449084437137642,True,True,0.6005016270045138,0.9491469707810294,7,1
interoceptive,0.6704175993423878,True,True,0.5438230818796749,0.6419529826416204,7,1
interoceptive,0.603375839408149,True,False,0.37769557372595347,0.6316980704185233,7,1
interoceptive,0.6637134233489639,False,False,0.30190075856377724,0.5752539525936898,7,1
interoceptive,0.7300847656838604,True,True,0.5585490717125698,0.758646145868745,7,1
interoceptive,0.6570762891154743,False,True,0.6504353098852786,0.7038073120633642,7,1
interoceptive,0.5913686602039269,False,True,0.4615210246419256,0.6291004117268657,7,1
interoceptive,0.5322317941835342,False,True,0.6205128946931484,0.4353178614783446,7,1
interoceptive,0.47900861476518075,False,False,0.6217373410844361,0.3382780433101504,7,1
interoceptive,0.5269094762416988,True,False,0.591268168383863,0.3671645775799227,7,1
interoceptive,0.5796004238658687,False,False,0.6639387194870994,0.5948257605588638,7,1
interoceptive,0.6375604662524557,True,True,0.4717134263860386,0.6661565210815096,7,1
interoceptive,0.5738044196272101,True,True,0.47997400084780467,0.6092393268799154,7,1
interoceptive,0.5164239776644891,True,True,0.5321155342927678,0.49710892202101326,7,1
interoceptive,0.4647815798980402,False,False,0.29327434773098,0.3475176298802197,7,1
interoceptive,0.5112597378878443,False,False,0.45401081797074544,0.4241099147294651,7,1
interoceptive,0.5623857116766288,False,False,0.47193463146893516,0.5080740559256922,7,1
interoceptive,0.6186242828442917,False,True,0.4248618044943902,0.7037367217990108,7,1
interoceptive,0.5567618545598626,True,True,0.5635663560534591,0.7646124111718928,7,1
interoceptive,0.5010856691038763,False,True,0.6317543080521641,0.5508155832562198,7,1
interoceptive,0.4509771021934887,False,True,0.6107746813746346,0.5031154069751752,7,1
interoceptive,0.4058793919741398,True,False,0.6692091815616122,0.1813700363296842,7,1
interoceptive,0.4464673311715538,True,False,0.513234785729774,0.3917955489286998,7,1
interoceptive,0.49111406428870924,True,True,0.5949571705589942,0.46635688153118493,7,1
interoceptive,0.44200265785983833,False,True,0.5250911684428854,0.5075694281008566,7,1
interoceptive,0.3978023920738545,False,False,0.4780604471524513,0.34755007776321717,7,1
interoceptive,0.43758263128124,False,False,0.47154236098240965,0.5349527454119558,7,1
interoceptive,0.481340894409364,True,False,0.4868797304737976,0.573505160107503,7,1
interoceptive,0.5294749838503005,False,True,0.4098318029679625,0.6245181962065542,7,1
interoceptive,0.4765274854652704,True,True,0.32243528923271064,0.5097391841689084,7,1
control,0.2470870002258967,False,True,0.4356324536960846,0.3564415504121669,7,1
control,0.22237830020330704,True,False,0.6358336293703157,0.41213664953355483,7,1
control,0.24461613022363776,True,False,0.5714305388029435,0.4146029817818609,7,1
control,0.26907774324600153,False,False,0.5923548263628251,0.2744333849106033,7,1
control,0.2959855175706017,False,False,0.504984731888425,0.4063193867090177,7,1
control,0.32558406932766193,False,True,0.5473844111078262,0.24011192025052847,7,1
control,0.29302566239489575,False,False,0.7093794984440384,0.3640555397243738,7,1
control,0.32232822863438537,False,False,0.49795362342102495,0.4886040059208122,7,1
control,0.35456105149782396,False,True,0.3655981260567924,0.314495552550336,7,1
control,0.3191049463480416,True,False,0.6200628873757449,0.514885737183909,7,1
control,0.35101544098284576,True,False,0.5130604331348063,0.13567633320895356,7,1
control,0.38611698508113035,True,False,0.5689397232104805,0.3120342018451983,7,1
control,0.4247286835892434,False,True,0.542231577643551,0.6256681055801872,7,1
control,0.3822558152303191,False,False,0.5816585241826481,0.4933119137440135,7,1
control,0.42048139675335106,True,False,0.3444721992961377,0.46414735034241916,7,1
control,0.4625295364286862,False,True,0.6282178705495585,0.5922497650293319,7,1
control,0.4162765827858176,False,False,0.41335519126105413,0.4382896962189559,7,1
control,0.45790424106439936,False,False,0.5338624102351098,0.4900165833973833,7,1
control,0.5036946651708394,False,True,0.3717136371853076,0.5363034282045975,7,1
control,0.4533251986537555,True,False,0.5102066830185633,0.5537638269216973,7,1
control,0.49865771851913104,False,True,0.5709313403081158,0.5838718205149812,7,1
control,0.44879194666721794,True,True,0.61210351858518,0.44144718295711843,7,1
control,0.40391275200049614,False,False,0.5493231389921936,0.49767744836789823,7,1
control,0.4443040272005458,True,True,0.5044602074734681,0.4445756214959729,7,1
control,0.39987362448049124,False,True,0.5729216576057756,0.44423926197418917,7,1
control,0.3598862620324421,True,False,0.4140717514913519,0.32805031687635866,7,1
control,0.39587488823568634,True,False,0.3826990555461619,0.3664184316931721,7,1
control,0.435462377059255,True,True,0.39407397460470284,0.4206335764140874,7,1
control,0.39191613935332953,False,True,0.38485217478609296,0.46025716807127226,7,1
control,0.3527245254179966,True,False,0.5887710087422798,0.2740867282770276,7,1
control,0.38799697795979626,False,False,0.4651458722256234,0.38256631538691194,7,1
control,0.4267966757557759,True,True,0.42672168646606573,0.2620741373075754,7,1
control,0.38411700818019834,False,False,0.3127591817073813,0.4292563737533275,7,1
control,0.4225287089982182,False,True,0.5946113778512577,0.48153022269579265,7,1
control,0.3802758380983964,True,True,0.43932279669296426,0.28595729855544905,7,1
control,0.34224825428855676,False,False,0.46307331516748484,0.2749975695125871,7,1
control,0.37647307971741245,True,True,0.4683703552590422,0.339607219584688,7,1
control,0.3388257717456712,False,False,0.47229084243173586,0.43982616768054345,7,1
control,0.37270834892023835,True,False,0.36810996391803796,0.307760080757148,7,1
control,0.4099791838122622,True,False,0.40492974630436784,0.4239409229204342,7,1
control,0.45097710219348847,True,True,0.5707175804808329,0.41640269212555464,7,1
control,0.40587939197413964,False,False,0.5393286368668497,0.29506507451512076,7,1
control,0.4464673311715536,False,True,0.41792937287484216,0.45807204832665716,7,1
control,0.4018205980543983,False,True,0.4043067859406657,0.4325909891880128,7,1
control,0.3616385382489585,False,True,0.46390935436723896,0.2088312206800191,7,1
control,0.32547468442406263,False,True,0.35127475156971344,0.3868755218129212,7,1
control,0.2929272159816564,True,True,0.6226747932454848,0.2915957715981199,7,1
control,0.26363449438349074,False,False,0.605352749192421,0.40050950066153046,7,1
control,0.28999794382183985,False,False,0.37712776621670335,0.3878286711953239,7,1
control,0.3189977382040239,False,False,0.4887709034210016,0.38630800012570665,7,1
control,0.3508975120244263,False,True,0.3289366159289643,0.48524877436348374,8,1
control,0.3158077608219837,True,False,0.37078545956662745,0.5411873177247661,8,1
control,0.3473885369041821,False,False,0.3397537086375719,0.3484128415946933,8,1
control,0.3821273905946003,False,True,0.5315763358909864,0.457362044449183,8,1
control,0.3439146515351403,False,True,0.5907126155209537,0.4566011417994861,8,1
control,0.30952318638162624,False,True,0.546636075443063,0.3657795392431894,8,1
control,0.2785708677434636,True,False,0.4836665758092951,0.4073332902338774,8,1
control,0.30642795451781,False,True,0.5083506971493715,0.4641645439821219,8,1
control,0.275785159066029,True,True,0.4684193727887179,0.4362144890324603,8,1
control,0.24820664315942612,False,False,0.5646779320356834,0.3531574710232724,8,1
control,0.27302730747536874,True,False,0.6809678372357484,0.6066788101851182,8,1
control,0.30033003822290566,False,True,0.4375879079036353,0.19716307438177794,8,1
control,0.2702970344006151,False,False,0.401732110822949,0.3231712809851523,8,1
control,0.29732673784067665,False,False,0.5648624928986924,0.23710121973829296,8,1
control,0.32705941162474433,True,True,0.3226688703850909,0.47463214072019594,8,1
control,0.2943534704622699,False,True,0.5638833447936688,0.5999058068045311,8,1
control,0.2649181234160429,True,False,0.3900389448148992,0.49350444106628744,8,1
control,0.29140993575764723,False,False,0.5533258353134377,0.46308370179612346,8,1
control,0.320550929333412,False,False,0.5582428539491041,0.16121719541545565,8,1
control,0.35260602226675325,False,False,0.4701718048602131,0.4004399909943733,8,1
control,0.3878666244934286,True,True,0.5583611473176308,0.3653186015439396,8,1
control,0.34907996204408576,False,True,0.6438577169078346,0.40701012527553954,8,1
control,0.3141719658396772,False,False,0.6576357466288385,0.3332781104215421,8,1
control,0.34558916242364496,True,True,0.5250519630182067,0.5106845162115662,8,1
control,0.31103024618128045,True,False,0.509157309679155,0.4665774955523213,8,1
control,0.34213327079940853,False,True,0.5586182700247649,0.4524805351637484,8,1
control,0.3079199437194677,True,True,0.5462305880743096,0.3338576459186319,8,1
control,0.27712794934752094,False,False,0.5625707969858857,0.17408814765759462,8,1
control,0.30484074428227304,False,False,0.5745670814096032,0.46354878552764084,8,1
control,0.33532481871050035,True,True,0.42275601647692884,0.3877663964028113,8,1
control,0.30179233683945034,False,True,0.5780794646991344,0.4816286346223879,8,1
control,0.2716131031555053,False,False,0.5612935719841623,0.38326682328003886,8,1
control,0.2987744134710559,True,True,0.4549995343543883,0.41525436891820866,8,1
control,0.2688969721239503,False,True,0.4748474219604737,0.40855750707217153,8,1
control,0.24200727491155527,True,False,0.7303400307291557,0.4179932241789012,8,1
control,0.2662080024027108,True,True,0.3982936072773371,0.5045216516672956,8,1
control,0.23958720216243973,True,False,0.28846598922990796,0.6279703273352268,8,1
control,0.26354592237868374,False,False,0.41437452590035373,0.40662912186434685,8,1
control,0.28990051461655214,False,False,0.5471919945524706,0.34986033079033396,8,1
control,0.31889056607820737,False,False,0.5458541805916137,0.22120591555355357,8,1
control,0.35077962268602814,False,False,0.4843254699485787,0.2941895722158359,8,1
control,0.38585758495463096,True,False,0.4529817649872785,0.2907620223067596,8,1
control,0.4244433434500941,True,True,0.6913274725901419,0.5434703104118188,8,1
control,0.3819990091050847,True,True,0.5029541175971249,0.4482461579810405,8,1
control,0.34379910819457626,True,False,0.3074937567894316,0.2517722184038282,8,1
control,0.37817901901403395,False,False,0.29984178701177056,0.5266912565188451,8,1
control,0.4159969209154374,True,False,0.4764717016107088,0.49449305998471527,8,1
control,0.4575966130069812,False,False,0.4021537643314954,0.45588833602719203,8,1
control,0.5033562743076794,True,True,0.5717023090115829,0.5783072616619499,8,1
control,0.45302064687691146,True,False,0.49136488371576176,0.5931982416325325,8,1
exteroceptive,0.2348983344956904,True,False,0.5201561110543905,0.43233966985527605,8,1
exteroceptive,0.25838816794525943,True,False,0.5668511728606471,0.5434892791357421,8,1
exteroceptive,0.2842269847397854,False,False,0.5035049824471025,0.444945667958379,8,1
exteroceptive,0.31264968321376396,True,True,0.5257237620012575,0.3401855577235728,8,1
exteroceptive,0.2813847148923876,False,True,0.6552727019100177,0.3866839862939324,8,1
exteroceptive,0.25324624340314883,True,False,0.5036711524913211,0.2444094503604344,8,1
exteroceptive,0.27857086774346373,True,False,0.5283893396759924,0.5392548175116528,8,1
exteroceptive,0.30642795451781013,False,False,0.5307003707404633,0.32425732415283537,8,1
exteroceptive,0.3370707499695912,True,True,0.5226781960432986,0.477578985112926,8,1
exteroceptive,0.30336367497263206,True,False,0.4914830017848356,0.38689781693771486,8,1
exteroceptive,0.33370004246989526,True,True,0.5089055567655256,0.4550430853867975,8,1
exteroceptive,0.30033003822290577,True,False,0.6663259942488473,0.3488984596253022,8,1
exteroceptive,0.3303630420451964,False,True,0.48257803872203175,0.32956215859674903,8,1
exteroceptive,0.29732673784067676,True,False,0.4686114788769825,0.2926126856885665,8,1
exteroceptive,0.32705941162474444,True,False,0.4533733666177354,0.34905913619860635,8,1
exteroceptive,0.35976535278721894,True,True,0.6425620344271685,0.5479606901805074,8,1
exteroceptive,0.32378881750849703,False,False,0.591496922962333,0.34411689701584985,8,1
exteroceptive,0.35616769925934677,False,False,0.6287319703081409,0.3358957835363051,8,1
exteroceptive,0.3917844691852815,False,True,0.44816484603684625,0.3869980536484146,8,1
exteroceptive,0.35260602226675336,True,False,0.523437044140465,0.5256509745942395,8,1
exteroceptive,0.38786662449342874,True,False,0.5573245174239096,0.5132241965599966,8,1
exteroceptive,0.42665328694277166,True,True,0.4428184419643503,0.5941335265697256,8,1
exteroceptive,0.3839879582484945,True,True,0.4489101255194835,0.3828400358531701,8,1
exteroceptive,0.34558916242364507,True,True,0.3917105915945817,0.21828116353705382,8,1
exteroceptive,0.31103024618128056,True,False,0.6595347551080029,0.37985501555377793,8,1
exteroceptive,0.34213327079940864,False,False,0.43839538311261633,0.22182448219712267,8,1
exteroceptive,0.37634659787934954,True,False,0.4472039960471444,0.25313542937257144,8,1
exteroceptive,0.41398125766728455,False,True,0.547452506321383,0.4648143320478848,8,1
exteroceptive,0.3725831319005561,False,False,0.45506798818577043,0.41685417208020686,8,1
exteroceptive,0.4098414450906117,False,True,0.5423974228900312,0.3363359445186357,8,1
exteroceptive,0.36885730058155053,True,False,0.5089410098025842,0.30063560773916154,8,1
exteroceptive,0.4057430306397056,False,False,0.43968670627600764,0.3795812247318917,8,1
exteroceptive,0.4463173337036762,False,True,0.36486866048827127,0.45719179992813425,8,1
exteroceptive,0.4016856003333086,True,True,0.4924651979978169,0.5368198593515274,8,1
exteroceptive,0.3615170402999777,True,True,0.6133138240949461,0.2265937683424475,8,1
exteroceptive,0.32536533626997993,True,False,0.5037279064208285,0.3842087517589793,8,1
exteroceptive,0.357901869896978,True,False,0.6852155952919833,0.32971584601707227,8,1
exteroceptive,0.3936920568866758,True,False,0.46953998459718727,0.40162798572136443,8,1
exteroceptive,0.43306126257534344,False,True,0.5685178047444782,0.4267333091222736,8,1
exteroceptive,0.3897551363178091,False,True,0.3218105462129827,0.3667561237982885,8,1
exteroceptive,0.3507796226860282,False,True,0.35734042147690837,0.2801310133528864,8,1
exteroceptive,0.31570166041742537,False,False,0.5383312480027382,0.36421351228523036,8,1
exteroceptive,0.34727182645916793,True,True,0.7039111644740457,0.43722755028523297,8,1
exteroceptive,0.31254464381325114,True,False,0.6798149986362995,0.5229245067577127,8,1
exteroceptive,0.34379910819457626,True,True,0.5923351508872302,0.5018676514708427,8,1
exteroceptive,0.30941919737511864,True,True,0.4433051589225022,0.3993469561555131,8,1
exteroceptive,0.27847727763760677,True,False,0.39971015579293623,0.4148818052117459,8,1
exteroceptive,0.3063250054013675,True,True,0.5787261380105626,0.5566978349733042,8,1
exteroceptive,0.27569250486123076,False,False,0.47330896014932766,0.33946402514818314,8,1
exteroceptive,0.30326175534735383,True,True,0.4618500808322903,0.293432568073641,8,1
interoceptive,0.4288747369187434,True,False,0.4970595319286558,0.3175165516402518,8,1
interoceptive,0.4717622106106178,True,True,0.6680202389391603,0.525410697630311,8,1
interoceptive,0.424585989549556,True,True,0.49861984211386623,0.2941530402995569,8,1
interoceptive,0.38212739059460044,True,False,0.6735823442326707,0.4354921399892997,8,1
interoceptive,0.42034012965406053,True,False,0.5467927072504235,0.40658663995439376,8,1
interoceptive,0.46237414261946663,True,True,0.4592810375428053,0.4187338776176895,8,1
interoceptive,0.41613672835751997,True,True,0.5803625767904247,0.3892190334650844,8,1
interoceptive,0.37452305552176796,True,False,0.5924295212209095,0.5212716824567518,8,1
interoceptive,0.4119753610739448,False,False,0.3838000642977487,0.34028267596282047,8,1
interoceptive,0.4531728971813393,True,True,0.517268137758543,0.6166786862378903,8,1
interoceptive,0.40785560746320537,False,False,0.42077424513610817,0.36477689095058086,8,1
interoceptive,0.44864116820952593,False,False,0.34200566708118957,0.3641724058837227,8,1
interoceptive,0.4935052850304786,False,False,0.490188383751449,0.513680096999525,8,1
interoceptive,0.5428558135335265,False,True,0.2451222242915646,0.4963098405065534,8,1
interoceptive,0.48857023218017387,True,True,0.5398250999184402,0.49338825655356255,8,1
interoceptive,0.4397132089621565,False,True,0.5159815181334609,0.4707099175596478,8,1
interoceptive,0.39574188806594085,True,True,0.4852302745288812,0.4006279135110683,8,1
interoceptive,0.35616769925934677,True,True,0.5633959900299983,0.42830060841650663,8,1
interoceptive,0.3205509293334121,False,False,0.5217482060899075,0.19568571456129177,8,1
interoceptive,0.35260602226675336,False,False,0.4355782082565796,0.28670778111421014,8,1
interoceptive,0.38786662449342874,False,True,0.5167782788219067,0.45598885169254166,8,1
interoceptive,0.34907996204408587,True,False,0.36059502937454924,0.3647292237882713,8,1
interoceptive,0.38398795824849447,False,False,0.5202867938854154,0.3977757009441698,8,1
interoceptive,0.422386754073344,True,True,0.3933301523826621,0.451097377842535,8,1
interoceptive,0.3801480786660096,True,False,0.4246949357679342,0.27757486794624486,8,1
interoceptive,0.4181628865326106,True,True,0.46437655908504255,0.5479496251095098,8,1
interoceptive,0.37634659787934954,False,False,0.5000874030666222,0.33162397185116793,8,1
interoceptive,0.41398125766728455,False,True,0.5087530134953925,0.4435327829103135,8,1
interoceptive,0.3725831319005561,True,True,0.30881757624736983,0.3171392437814394,8,1
interoceptive,0.33532481871050046,False,False,0.41321126059444335,0.29635983616357375,8,1
interoceptive,0.36885730058155053,True,False,0.5058236221556472,0.2315874397349862,8,1
