condition,contrast,is_synchronous,response,rt,detection_prob,participant_id,trial_idx,trial_num
exteroceptive,0.5,True,synchronous,0.4560770481589509,0.4234569970335477,1,0,1
exteroceptive,0.45,True,synchronous,0.5697807333802902,0.521393255746207,1,0,1
exteroceptive,0.405,True,asynchronous,0.5288993827619412,0.30184225665274156,1,0,1
exteroceptive,0.36450000000000005,False,synchronous,0.47869693802237123,0.4341437045815194,1,0,1
exteroceptive,0.32805000000000006,True,asynchronous,0.46659100686560373,0.3521762204545603,1,0,1
exteroceptive,0.2952450000000001,False,asynchronous,0.5086785653411307,0.20518950474354056,1,0,1
exteroceptive,0.2657205000000001,True,asynchronous,0.37191641236750755,0.24523839884259158,1,0,1
exteroceptive,0.23914845000000007,False,asynchronous,0.6918933844644437,0.49811266383170694,1,0,1
exteroceptive,0.21523360500000008,True,asynchronous,0.6600700529813904,0.29178759099469964,1,0,1
exteroceptive,0.19371024450000007,True,asynchronous,0.4852562983108944,0.2546508522412644,1,0,1
exteroceptive,0.17433922005000008,True,synchronous,0.43775374312082066,0.22847639408679724,1,0,1
exteroceptive,0.15690529804500009,True,asynchronous,0.4145364087391725,0.2997712692021579,1,0,1
exteroceptive,0.14121476824050008,True,synchronous,0.5755952737033561,0.17541671851055798,1,0,1
exteroceptive,0.12709329141645007,True,asynchronous,0.4917818058957591,0.144158552355015,1,0,1
exteroceptive,0.11438396227480506,True,asynchronous,0.6204823527676386,0.22667748741831792,1,0,1
exteroceptive,0.10294556604732455,True,asynchronous,0.37997577668409116,0.18396257166439647,1,0,1
exteroceptive,0.0926510094425921,True,synchronous,0.43912513893636435,0.30931964754145147,1,0,1
exteroceptive,0.08338590849833288,False,asynchronous,0.6659867095164926,0.0,1,0,1
exteroceptive,0.0750473176484996,False,asynchronous,0.5846068407053336,0.22973960904599855,1,0,1
exteroceptive,0.06754258588364964,True,asynchronous,0.6334733681691274,0.2596421871793988,1,0,1
exteroceptive,0.06078832729528468,False,asynchronous,0.5230259265728837,0.17494044046398985,1,0,1
exteroceptive,0.05470949456575622,False,asynchronous,0.33075847730772984,0.2194708120045844,1,0,1
exteroceptive,0.0492385451091806,True,synchronous,0.435889625162328,0.2780748488288987,1,0,1
exteroceptive,0.04431469059826254,True,synchronous,0.5625520936469017,0.34969659415327314,1,0,1
exteroceptive,0.039883221538436285,False,asynchronous,0.42902425283927637,0.0,1,0,1
exteroceptive,0.03589489938459266,True,asynchronous,0.5952515174367083,0.05847078227975022,1,0,1
exteroceptive,0.032305409446133394,True,asynchronous,0.6131780400031253,0.004497784828033896,1,0,1
exteroceptive,0.029074868501520055,True,asynchronous,0.33672191872050355,0.10367914606005198,1,0,1
exteroceptive,0.02616738165136805,False,asynchronous,0.5471260109016439,0.07919144956555768,1,0,1
exteroceptive,0.023550643486231246,False,asynchronous,0.4317932687820272,0.0,1,0,1
exteroceptive,0.021195579137608122,True,synchronous,0.45217389012865306,0.30259911620970426,1,0,1
exteroceptive,0.01907602122384731,True,asynchronous,0.7177545565369122,0.16778130898730617,1,0,1
exteroceptive,0.01716841910146258,False,asynchronous,0.4892309641873792,0.19027160408197125,1,0,1
exteroceptive,0.015451577191316321,True,asynchronous,0.4617731064682823,0.13085916895282385,1,0,1
exteroceptive,0.01390641947218469,True,asynchronous,0.4655252942622451,0.35142529502972375,1,0,1
exteroceptive,0.012515777524966222,False,asynchronous,0.5412347532038823,0.1102956328483875,1,0,1
exteroceptive,0.0112641997724696,False,asynchronous,0.5081964733255732,0.2239936386529361,1,0,1
exteroceptive,0.010137779795222639,False,asynchronous,0.43763278845016346,0.21352980068347513,1,0,1
exteroceptive,0.01,True,asynchronous,0.5985581975786878,0.19783526094850043,1,0,1
exteroceptive,0.01,True,synchronous,0.5003754322411212,0.2978000745432322,1,0,1
exteroceptive,0.01,False,asynchronous,0.3170556945541426,0.1732957761311282,1,0,1
exteroceptive,0.01,False,synchronous,0.6724981408636117,0.18217359788889634,1,0,1
exteroceptive,0.01,False,asynchronous,0.4569571625970309,0.1449028447067365,1,0,1
exteroceptive,0.01,False,asynchronous,0.3940855407622808,0.0,1,0,1
exteroceptive,0.01,True,asynchronous,0.5448715605862064,0.14558232009542438,1,0,1
exteroceptive,0.01,False,asynchronous,0.5240098020361891,0.1439417771138995,1,0,1
exteroceptive,0.01,True,asynchronous,0.5034648814421011,0.2369171409063306,1,0,1
exteroceptive,0.01,False,asynchronous,0.38931165022603487,0.24710223231444406,1,0,1
exteroceptive,0.01,False,asynchronous,0.38336640423761364,0.14743588480548286,1,0,1
exteroceptive,0.01,True,asynchronous,0.36935469013114197,0.13114726740109484,1,0,1
interoceptive,0.5,False,asynchronous,0.5544372181409395,0.5247884438693914,1,0,1
interoceptive,0.45,True,synchronous,0.4923786319485611,0.37393470945021196,1,0,1
interoceptive,0.405,True,asynchronous,0.5482556384692947,0.3307065709759678,1,0,1
interoceptive,0.36450000000000005,True,synchronous,0.6689629744717922,0.3322816332814953,1,0,1
interoceptive,0.32805000000000006,True,asynchronous,0.37499322471633373,0.17504987947830944,1,0,1
interoceptive,0.2952450000000001,True,asynchronous,0.4868079404992092,0.28190022544595966,1,0,1
interoceptive,0.2657205000000001,False,asynchronous,0.7456761563197709,0.03547399151894956,1,0,1
interoceptive,0.23914845000000007,True,synchronous,0.42326200787284524,0.13800707011384772,1,0,1
interoceptive,0.21523360500000008,False,asynchronous,0.4560253272842789,0.08170924697059301,1,0,1
interoceptive,0.19371024450000007,False,asynchronous,0.3826103661309667,0.35112106097614076,1,0,1
interoceptive,0.17433922005000008,True,asynchronous,0.3753304885846834,0.15496227450181663,1,0,1
interoceptive,0.15690529804500009,False,asynchronous,0.4025127418265019,0.1175847056647995,1,0,1
interoceptive,0.14121476824050008,False,asynchronous,0.4708071995922171,0.2091185469107662,1,0,1
interoceptive,0.12709329141645007,False,asynchronous,0.49959312049296645,0.00668175005826234,1,0,1
interoceptive,0.11438396227480506,True,asynchronous,0.38899188843039806,0.06690458281644124,1,0,1
interoceptive,0.10294556604732455,False,asynchronous,0.6577713693592787,0.0766215976838196,1,0,1
interoceptive,0.0926510094425921,False,asynchronous,0.478648159118357,0.08547504428693313,1,0,1
interoceptive,0.08338590849833288,True,asynchronous,0.37721426748729275,0.23517268638332786,1,0,1
interoceptive,0.0750473176484996,False,asynchronous,0.5952886569376072,0.07790274939369202,1,0,1
interoceptive,0.06754258588364964,True,asynchronous,0.6295480649751954,0.07832747420477965,1,0,1
interoceptive,0.06078832729528468,False,asynchronous,0.3845023767482122,0.18491305822948567,1,0,1
interoceptive,0.05470949456575622,True,asynchronous,0.32362209365958333,0.0,1,0,1
interoceptive,0.0492385451091806,False,asynchronous,0.507968713986678,0.008505919584312086,1,0,1
interoceptive,0.04431469059826254,True,asynchronous,0.5096545315708184,0.13736258291209885,1,0,1
interoceptive,0.039883221538436285,True,asynchronous,0.5746333694476283,0.12640042066938806,1,0,1
interoceptive,0.03589489938459266,False,asynchronous,0.43192164149884726,0.05641144729480012,1,0,1
interoceptive,0.032305409446133394,False,asynchronous,0.5089810172598631,0.0,1,0,1
interoceptive,0.029074868501520055,True,synchronous,0.49310992625040106,0.15557275846617144,1,0,1
interoceptive,0.02616738165136805,False,asynchronous,0.49347730482021906,0.0,1,0,1
interoceptive,0.023550643486231246,True,asynchronous,0.5537194715473067,0.22289355025153923,1,0,1
interoceptive,0.021195579137608122,False,asynchronous,0.6438633545714909,0.0,1,0,1
interoceptive,0.01907602122384731,True,asynchronous,0.5013521971562631,0.1290401136158868,1,0,1
interoceptive,0.01716841910146258,False,asynchronous,0.6205180934280392,0.16334695172887714,1,0,1
interoceptive,0.015451577191316321,False,synchronous,0.5288900937592357,0.17138961394805946,1,0,1
interoceptive,0.01390641947218469,False,asynchronous,0.4790043404052068,0.23478150043811416,1,0,1
interoceptive,0.012515777524966222,True,asynchronous,0.5711704821814606,0.07268697629947402,1,0,1
interoceptive,0.0112641997724696,False,asynchronous,0.2624436154924717,0.29552683161016274,1,0,1
interoceptive,0.010137779795222639,True,asynchronous,0.49133758263980065,0.0,1,0,1
interoceptive,0.01,False,asynchronous,0.4673770741970506,0.12433047621052812,1,0,1
interoceptive,0.01,True,asynchronous,0.45978756674756105,0.14364937375292186,1,0,1
interoceptive,0.01,False,asynchronous,0.5775139396291388,0.0,1,0,1
interoceptive,0.01,True,asynchronous,0.6718127060006044,0.0,1,0,1
interoceptive,0.01,True,asynchronous,0.4632227284463223,0.13071153791592177,1,0,1
interoceptive,0.01,False,asynchronous,0.5804561764009715,0.03271773923305494,1,0,1
interoceptive,0.01,True,asynchronous,0.5321084779935216,0.03360702560678842,1,0,1
interoceptive,0.01,True,asynchronous,0.5855630199873235,0.0,1,0,1
interoceptive,0.01,False,asynchronous,0.3652101324580807,0.1616506431756372,1,0,1
interoceptive,0.01,True,asynchronous,0.5232087435345076,0.018723461091984125,1,0,1
interoceptive,0.01,False,asynchronous,0.2835380888016064,0.004104187867675885,1,0,1
interoceptive,0.01,False,asynchronous,0.37433780714872833,0.00315927563432003,1,0,1
control,0.5,False,synchronous,0.588234244571429,0.7327778706413172,1,0,1
control,0.45,False,synchronous,0.3688037379173184,0.5838195061505652,1,0,1
control,0.405,True,synchronous,0.5778837381132357,0.5197850656347183,1,0,1
control,0.36450000000000005,True,asynchronous,0.42273484694886737,0.7639486144471768,1,0,1
control,0.32805000000000006,True,asynchronous,0.3496171876455258,0.5171815948912706,1,0,1
control,0.2952450000000001,True,asynchronous,0.6032086012315276,0.30050924708855276,1,0,1
control,0.2657205000000001,True,synchronous,0.4055483691201476,0.3740485981149856,1,0,1
control,0.23914845000000007,True,asynchronous,0.679214572196487,0.2020366612246509,1,0,1
control,0.21523360500000008,False,synchronous,0.4567311437050801,0.48025284736659113,1,0,1
control,0.19371024450000007,False,asynchronous,0.5870303701078528,0.36999336522658893,1,0,1
control,0.17433922005000008,True,synchronous,0.5462136540355902,0.38014706816087296,1,0,1
control,0.15690529804500009,True,asynchronous,0.5399000576875915,0.38598817032737304,1,0,1
control,0.14121476824050008,True,synchronous,0.5992673237851793,0.6134649747608578,1,0,1
control,0.12709329141645007,False,synchronous,0.6411688896415638,0.3150969783029246,1,0,1
control,0.11438396227480506,False,asynchronous,0.5812416278657769,0.3431765160302769,1,0,1
control,0.10294556604732455,False,asynchronous,0.5498409959446081,0.2736190424395322,1,0,1
control,0.0926510094425921,False,asynchronous,0.4129595237134052,0.21355746114730825,1,0,1
control,0.08338590849833288,False,asynchronous,0.5899660284081283,0.15984240088407764,1,0,1
control,0.0750473176484996,True,asynchronous,0.4438586966407099,0.4151041255239115,1,0,1
control,0.06754258588364964,True,asynchronous,0.4369387420136977,0.14826175528431879,1,0,1
control,0.06078832729528468,True,asynchronous,0.4056403045143531,0.3683382985658021,1,0,1
control,0.05470949456575622,False,asynchronous,0.46345407182292503,0.2888876847736837,1,0,1
control,0.0492385451091806,True,asynchronous,0.29158004210412114,0.12758094061937286,1,0,1
control,0.04431469059826254,False,asynchronous,0.5825091716254911,0.14437406782670303,1,0,1
control,0.039883221538436285,True,asynchronous,0.4440926633763566,0.3891428439154507,1,0,1
control,0.03589489938459266,True,asynchronous,0.6139876734010753,0.06878936453084136,1,0,1
control,0.032305409446133394,False,asynchronous,0.5505429902388971,0.3889649325287011,1,0,1
control,0.029074868501520055,False,asynchronous,0.5279574077853197,0.13489354791869745,1,0,1
control,0.02616738165136805,False,synchronous,0.40570791578354637,0.07379761598078782,1,0,1
control,0.023550643486231246,True,asynchronous,0.5258088635674533,0.030799531030649446,1,0,1
control,0.021195579137608122,False,asynchronous,0.5117360984589675,0.1780641181174922,1,0,1
control,0.01907602122384731,True,asynchronous,0.6022367005870048,0.30716052933023336,1,0,1
control,0.01716841910146258,True,asynchronous,0.46835957450793486,0.16991459538603726,1,0,1
control,0.015451577191316321,True,asynchronous,0.7199434376787651,0.16461338374787826,1,0,1
control,0.01390641947218469,False,asynchronous,0.34473286436812384,0.09251501885543681,1,0,1
control,0.012515777524966222,False,asynchronous,0.5415838336895793,0.32284743656655696,1,0,1
control,0.0112641997724696,False,synchronous,0.5873794737101328,0.22795385369435336,1,0,1
control,0.010137779795222639,False,asynchronous,0.5296949635718972,0.2641335736833478,1,0,1
control,0.01,False,asynchronous,0.45564725168294345,0.29302432776830417,1,0,1
control,0.01,True,asynchronous,0.6146039635126122,0.3812846640800879,1,0,1
control,0.01,False,synchronous,0.4289301635166725,0.3592144737195724,1,0,1
control,0.01,True,asynchronous,0.5048945859674447,0.16905545147782172,1,0,1
control,0.01,True,asynchronous,0.47045283025133067,0.3075458419476898,1,0,1
control,0.01,True,synchronous,0.6325744659621773,0.23379660834109298,1,0,1
control,0.01,True,asynchronous,0.48485584453811703,0.33374038218028546,1,0,1
control,0.01,False,asynchronous,0.4480460884894293,0.06740731181042617,1,0,1
control,0.01,True,asynchronous,0.5844087413928083,0.0464778280997136,1,0,1
control,0.01,False,asynchronous,0.5160576434134199,0.07320298563930525,1,0,1
control,0.01,False,synchronous,0.5424254587029979,0.2014315536445062,1,0,1
control,0.01,True,synchronous,0.5087045787836054,0.14360905696108156,1,0,1
control,0.01,True,asynchronous,0.591870769887558,0.258327998267959,2,0,1
control,0.01,True,asynchronous,0.5076067578849252,0.21583018732384393,2,0,1
control,0.01,True,synchronous,0.5476806112690309,0.2016862506027886,2,0,1
control,0.01,True,synchronous,0.4844831720105179,0.2618959966839352,2,0,1
control,0.01,True,asynchronous,0.5484124249759905,0.4073885605517233,2,0,1
control,0.01,False,synchronous,0.5202710693245648,0.2889092984234957,2,0,1
control,0.01,True,asynchronous,0.52045875744113,0.22946088909250587,2,0,1
control,0.01,True,asynchronous,0.6225902855811146,0.08865930808961683,2,0,1
control,0.01,False,asynchronous,0.5257540766290439,0.10832217586200121,2,0,1
control,0.01,True,asynchronous,0.5164371949422703,0.06913425511945673,2,0,1
control,0.01,True,asynchronous,0.556979394668826,0.24432755167309197,2,0,1
control,0.01,True,asynchronous,0.4839930340147215,0.18434823699743727,2,0,1
control,0.01,True,asynchronous,0.5870547546908277,0.18147705316302554,2,0,1
control,0.01,False,asynchronous,0.39835357632395324,0.13214591962587657,2,0,1
control,0.01,True,asynchronous,0.48606644596373316,0.1937053643127037,2,0,1
control,0.01,False,asynchronous,0.598267539699371,0.35160137100028793,2,0,1
control,0.01,False,synchronous,0.45331878510175116,0.3466668397327105,2,0,1
control,0.01,True,asynchronous,0.5457946664845285,0.09586612359992194,2,0,1
control,0.01,False,asynchronous,0.4744356895587892,0.22331332230587064,2,0,1
control,0.01,True,asynchronous,0.530300613509567,0.2697983075045714,2,0,1
control,0.01,True,synchronous,0.5725485932526982,0.26463918913317286,2,0,1
control,0.01,False,asynchronous,0.5290834549250145,0.2070516198843041,2,0,1
control,0.01,False,asynchronous,0.38287234927117614,0.2774619157908325,2,0,1
control,0.01,True,asynchronous,0.555069436786689,0.3654124218983966,2,0,1
control,0.01,True,synchronous,0.5500360517459876,0.3315609927899924,2,0,1
control,0.01,True,asynchronous,0.516829336378085,0.011395693412182467,2,0,1
control,0.01,True,synchronous,0.5554107453856345,0.4010220497616895,2,0,1
control,0.01,True,asynchronous,0.5297384871480842,0.18569088144976315,2,0,1
control,0.01,True,asynchronous,0.4256731950443279,0.1040767984388154,2,0,1
control,0.01,True,asynchronous,0.5879862036688892,0.30761761759191086,2,0,1
control,0.01,True,synchronous,0.5744911538354094,0.1844749298543487,2,0,1
control,0.01,False,asynchronous,0.4343239575520704,0.28909284152595466,2,0,1
control,0.01,False,asynchronous,0.45078501822027417,0.2633033387367878,2,0,1
control,0.01,True,synchronous,0.45307281064571225,0.21571301377055174,2,0,1
control,0.01,True,asynchronous,0.43216174268156404,0.0,2,0,1
control,0.01,False,asynchronous,0.5842392536849336,0.1948648068514069,2,0,1
control,0.01,False,asynchronous,0.24897531716326435,0.33125198665302963,2,0,1
control,0.01,False,asynchronous,0.4871414823902726,0.2833274910117661,2,0,1
control,0.01,False,synchronous,0.4827026078869532,0.1636374077836505,2,0,1
control,0.01,True,asynchronous,0.41475461725189555,0.08873869481394042,2,0,1
control,0.01,False,asynchronous,0.6966777858499231,0.2140315965194858,2,0,1
control,0.01,True,asynchronous,0.49467912853438784,0.22510150768659826,2,0,1
control,0.01,True,synchronous,0.4903675788594183,0.36419756523177393,2,0,1
control,0.01,True,synchronous,0.4832224233098167,0.31979511035219577,2,0,1
control,0.01,True,asynchronous,0.47788552189857736,0.14207692524765506,2,0,1
control,0.01,True,asynchronous,0.583444694960115,0.2011774283576221,2,0,1
control,0.01,True,asynchronous,0.5718317981935577,0.40544503087851386,2,0,1
control,0.01,True,asynchronous,0.3970196728798954,0.09027535276349555,2,0,1
control,0.01,True,asynchronous,0.4143708002793371,0.13686198417108028,2,0,1
control,0.01,False,asynchronous,0.24070858371704013,0.3412124924878017,2,0,1
interoceptive,0.01,False,asynchronous,0.4854996765088814,0.0,2,0,1
interoceptive,0.01,False,asynchronous,0.37117544551059445,0.0,2,0,1
interoceptive,0.01,True,asynchronous,0.4682576250547742,0.04416301728339701,2,0,1
interoceptive,0.01,False,asynchronous,0.49827636574527906,0.007899422201818315,2,0,1
interoceptive,0.01,False,asynchronous,0.2772155942508074,0.0729171487465901,2,0,1
interoceptive,0.01,False,asynchronous,0.3995119775328971,0.0,2,0,1
interoceptive,0.01,False,asynchronous,0.6548027465461298,0.024275059225893555,2,0,1
interoceptive,0.01,True,asynchronous,0.5205085707239562,0.07646895276358945,2,0,1
interoceptive,0.01,True,asynchronous,0.39875529100576784,0.0,2,0,1
interoceptive,0.01,True,asynchronous,0.536960267291827,0.13919898222281263,2,0,1
interoceptive,0.01,False,asynchronous,0.4755857426809069,0.12342757624904321,2,0,1
interoceptive,0.01,False,asynchronous,0.41915209214600074,0.06015737822496187,2,0,1
interoceptive,0.01,False,asynchronous,0.48052848071221393,0.10226934943214172,2,0,1
interoceptive,0.01,False,asynchronous,0.5244466356214047,0.07162940880081117,2,0,1
interoceptive,0.01,False,asynchronous,0.5034664948386731,0.16340825905590384,2,0,1
interoceptive,0.01,False,asynchronous,0.5782701937238657,0.0,2,0,1
interoceptive,0.01,True,asynchronous,0.5725111170635971,0.0,2,0,1
interoceptive,0.01,True,synchronous,0.34834121461400924,0.15334394849676414,2,0,1
interoceptive,0.01,False,asynchronous,0.554212967505653,0.0,2,0,1
interoceptive,0.01,True,asynchronous,0.36350993512033486,0.03877078288837861,2,0,1
interoceptive,0.01,True,asynchronous,0.41801291793282047,0.0,2,0,1
interoceptive,0.01,True,asynchronous,0.3589693271471795,0.0,2,0,1
interoceptive,0.01,True,asynchronous,0.3686085114788134,0.0,2,0,1
interoceptive,0.01,False,asynchronous,0.6408152601602876,0.0,2,0,1
interoceptive,0.01,True,asynchronous,0.32278370300957787,0.0,2,0,1
interoceptive,0.01,False,asynchronous,0.4931078968745705,0.0,2,0,1
interoceptive,0.01,True,asynchronous,0.5873385521767808,0.14246066543488212,2,0,1
interoceptive,0.01,False,asynchronous,0.5429715607555422,0.09144178881473086,2,0,1
interoceptive,0.01,True,asynchronous,0.41967885861227755,0.16887678325160232,2,0,1
interoceptive,0.01,False,asynchronous,0.5769734917150492,0.0,2,0,1
interoceptive,0.01,False,asynchronous,0.422899396339615,0.05531733116806324,2,0,1
interoceptive,0.01,False,synchronous,0.3356385615220402,0.1282844115301399,2,0,1
interoceptive,0.01,True,asynchronous,0.4684666242375081,0.0,2,0,1
interoceptive,0.01,True,asynchronous,0.588390652373758,0.0,2,0,1
interoceptive,0.01,True,asynchronous,0.627670513552427,0.08650701207004746,2,0,1
interoceptive,0.01,True,asynchronous,0.5433482348879564,0.03206357461094391,2,0,1
interoceptive,0.01,False,asynchronous,0.4253252201539029,0.24812835922561371,2,0,1
interoceptive,0.01,False,asynchronous,0.5046787267689548,0.0,2,0,1
interoceptive,0.01,False,asynchronous,0.4652558241413851,0.022667867713563973,2,0,1
interoceptive,0.01,False,asynchronous,0.690720429915027,0.0,2,0,1
interoceptive,0.01,False,asynchronous,0.5484320438265644,0.0,2,0,1
interoceptive,0.01,True,asynchronous,0.38817472388822555,0.14496084737728643,2,0,1
interoceptive,0.01,True,asynchronous,0.5689887903088713,0.10292377688253812,2,0,1
interoceptive,0.01,False,synchronous,0.44904876444708275,0.09096450980472985,2,0,1
interoceptive,0.01,False,asynchronous,0.5252290749064662,0.1615846207628674,2,0,1
interoceptive,0.01,False,asynchronous,0.6533156304622207,0.11082238096108774,2,0,1
interoceptive,0.01,False,asynchronous,0.3777749955365349,0.24648521602283863,2,0,1
interoceptive,0.01,True,asynchronous,0.5102375154842969,0.15269748924461968,2,0,1
interoceptive,0.01,True,asynchronous,0.4060324333070418,0.05049652109693889,2,0,1
interoceptive,0.01,False,asynchronous,0.3766928818317097,0.08971154494871553,2,0,1
exteroceptive,0.01,False,asynchronous,0.4350182707766767,0.0,2,0,1
exteroceptive,0.01,False,asynchronous,0.5406467195776136,0.18503489478321056,2,0,1
exteroceptive,0.01,False,asynchronous,0.4795044416079269,0.0,2,0,1
exteroceptive,0.01,True,asynchronous,0.3740776804810916,0.2551103595264944,2,0,1
exteroceptive,0.01,True,asynchronous,0.5316793350397734,0.1672867370517616,2,0,1
exteroceptive,0.01,False,asynchronous,0.6966188169782948,0.09476855392589986,2,0,1
exteroceptive,0.01,True,asynchronous,0.6119948024230755,0.24293647640055066,2,0,1
exteroceptive,0.01,False,synchronous,0.47886401578242466,0.08777193850360433,2,0,1
exteroceptive,0.01,True,asynchronous,0.5818188297372325,0.21886520010715826,2,0,1
exteroceptive,0.01,False,asynchronous,0.2620604890014041,0.14861633400428909,2,0,1
exteroceptive,0.01,True,synchronous,0.49966665293870915,0.35156191458255776,2,0,1
exteroceptive,0.01,False,synchronous,0.6473702223828766,0.1878394706360048,2,0,1
exteroceptive,0.01,False,asynchronous,0.4366510140110576,0.0062098880366667775,2,0,1
exteroceptive,0.01,False,asynchronous,0.4710265841293267,0.20170696537979763,2,0,1
exteroceptive,0.01,False,asynchronous,0.3345756583811254,0.0,2,0,1
exteroceptive,0.01,True,asynchronous,0.5657316155172506,0.24806169346103138,2,0,1
exteroceptive,0.01,False,asynchronous,0.5508145118363011,0.3260105284281207,2,0,1
exteroceptive,0.01,False,asynchronous,0.4923445229971787,0.1844482336434707,2,0,1
exteroceptive,0.01,False,asynchronous,0.5749331192146577,0.07532397677955915,2,0,1
exteroceptive,0.01,True,asynchronous,0.5100243164944052,0.14357042268066514,2,0,1
exteroceptive,0.01,False,asynchronous,0.5023712722702856,0.05139900250936305,2,0,1
exteroceptive,0.01,True,asynchronous,0.4533938116926576,0.2474402804688795,2,0,1
exteroceptive,0.01,False,asynchronous,0.4393803662117325,0.2971166159849925,2,0,1
exteroceptive,0.01,True,asynchronous,0.6672543498273145,0.1803185251476657,2,0,1
exteroceptive,0.01,True,asynchronous,0.3785416497893656,0.11428596967089646,2,0,1
exteroceptive,0.01,False,asynchronous,0.5088914383211778,0.13551122701161214,2,0,1
exteroceptive,0.01,True,synchronous,0.5341478400488289,0.2793451507811487,2,0,1
exteroceptive,0.01,False,asynchronous,0.33055622733275625,0.23664293950389748,2,0,1
exteroceptive,0.01,True,asynchronous,0.39665333539241787,0.11440158738362541,2,0,1
exteroceptive,0.01,True,asynchronous,0.41472741411901665,0.12096211090634593,2,0,1
exteroceptive,0.01,False,synchronous,0.4371626245147301,0.1492931160033089,2,0,1
exteroceptive,0.01,False,asynchronous,0.42438111616506113,0.170859170801116,2,0,1
exteroceptive,0.01,True,asynchronous,0.5333935053710276,0.1443337743714632,2,0,1
exteroceptive,0.01,True,synchronous,0.33588188754760173,0.17707976590139274,2,0,1
exteroceptive,0.01,False,asynchronous,0.5907159297670641,0.028754393454681282,2,0,1
exteroceptive,0.01,False,asynchronous,0.5548871928487074,0.22698174358206555,2,0,1
exteroceptive,0.01,True,asynchronous,0.5766462181714028,0.1761459958703616,2,0,1
exteroceptive,0.01,False,asynchronous,0.5741634879191451,0.2340282865530542,2,0,1
exteroceptive,0.01,True,asynchronous,0.4147529467341229,0.29127995134606655,2,0,1
exteroceptive,0.01,False,asynchronous,0.5118039842795097,0.1891630622070084,2,0,1
exteroceptive,0.01,True,asynchronous,0.4572210111967109,0.21873427427346726,2,0,1
exteroceptive,0.01,True,asynchronous,0.5386897460885697,0.1151036518258721,2,0,1
exteroceptive,0.01,True,asynchronous,0.5561245808339792,0.0,2,0,1
exteroceptive,0.01,False,asynchronous,0.4784154818804869,0.09497987278999978,2,0,1
exteroceptive,0.01,False,asynchronous,0.6856718580859978,0.33755856075760454,2,0,1
exteroceptive,0.01,False,asynchronous,0.4246410990394646,0.2258803375472992,2,0,1
exteroceptive,0.01,False,asynchronous,0.5146167493060906,0.0,2,0,1
exteroceptive,0.01,True,asynchronous,0.6405772769554808,0.023296680410740428,2,0,1
exteroceptive,0.01,True,asynchronous,0.5634278263419776,0.21572338248237485,2,0,1
exteroceptive,0.01,True,asynchronous,0.5147134647165307,0.04310604142463191,2,0,1
