condition,contrast,is_synchronous,response,rt,detection_prob,participant_id,trial_idx,trial_num
interoceptive,0.5,False,asynchronous,0.682946270944174,0.3905143245749316,1,0,1
interoceptive,0.45,True,synchronous,0.3464315173518645,0.48983069075088387,1,0,1
interoceptive,0.405,True,synchronous,0.49647863855828483,0.35373183784615825,1,0,1
interoceptive,0.36450000000000005,True,synchronous,0.5084411845631056,0.4697226424446182,1,0,1
interoceptive,0.32805000000000006,True,synchronous,0.3252790262819417,0.14202130158449083,1,0,1
interoceptive,0.2952450000000001,False,asynchronous,0.2951682885859629,0.3612699740319464,1,0,1
interoceptive,0.2657205000000001,True,asynchronous,0.5348937281718026,0.2735780100787981,1,0,1
interoceptive,0.23914845000000007,False,asynchronous,0.4752849599183036,0.20311172781121517,1,0,1
interoceptive,0.21523360500000008,False,synchronous,0.45803661242526933,0.19358546001596313,1,0,1
interoceptive,0.19371024450000007,False,asynchronous,0.608076432332346,0.2182965460780133,1,0,1
interoceptive,0.17433922005000008,True,synchronous,0.4844786493278263,0.25557322062927296,1,0,1
interoceptive,0.15690529804500009,False,asynchronous,0.5254292983873365,0.1411226526502661,1,0,1
interoceptive,0.14121476824050008,True,asynchronous,0.5206784291238281,0.06435216079983413,1,0,1
interoceptive,0.12709329141645007,False,asynchronous,0.46690830247096005,0.2107104279721564,1,0,1
interoceptive,0.11438396227480506,True,asynchronous,0.6590744333834445,0.0,1,0,1
interoceptive,0.10294556604732455,True,asynchronous,0.5660487495001756,0.04012470406378642,1,0,1
interoceptive,0.0926510094425921,True,synchronous,0.40004650555772425,0.28663463916789145,1,0,1
interoceptive,0.08338590849833288,True,asynchronous,0.34299281042854174,0.13988414531192336,1,0,1
interoceptive,0.0750473176484996,False,asynchronous,0.47561266058792884,0.1288917802929667,1,0,1
interoceptive,0.06754258588364964,True,asynchronous,0.6170428674063927,0.1383745365271511,1,0,1
interoceptive,0.06078832729528468,False,asynchronous,0.5552724054881769,0.054914004710337944,1,0,1
interoceptive,0.05470949456575622,True,asynchronous,0.5389989816315164,0.037764806395650316,1,0,1
interoceptive,0.0492385451091806,False,synchronous,0.5124639765148377,0.16867949742494842,1,0,1
interoceptive,0.04431469059826254,False,asynchronous,0.5340789175378462,0.01490545196197103,1,0,1
interoceptive,0.039883221538436285,False,asynchronous,0.7181141098899535,0.0,1,0,1
interoceptive,0.03589489938459266,True,asynchronous,0.6254138496261734,0.0,1,0,1
interoceptive,0.032305409446133394,False,asynchronous,0.5186357162390856,0.0,1,0,1
interoceptive,0.029074868501520055,False,asynchronous,0.46544756147485117,0.2051270722843805,1,0,1
interoceptive,0.02616738165136805,True,asynchronous,0.38504378073390194,0.0,1,0,1
interoceptive,0.023550643486231246,False,asynchronous,0.47967532354646525,0.0,1,0,1
interoceptive,0.021195579137608122,False,asynchronous,0.6840050542467039,0.1889982247785472,1,0,1
interoceptive,0.01907602122384731,True,asynchronous,0.5514187716577085,0.0,1,0,1
interoceptive,0.01716841910146258,True,asynchronous,0.40760310141131667,0.08316795430409629,1,0,1
interoceptive,0.015451577191316321,True,asynchronous,0.36549809122707366,0.1650137889193219,1,0,1
interoceptive,0.01390641947218469,True,asynchronous,0.551044476918796,0.002645580044013024,1,0,1
interoceptive,0.012515777524966222,False,asynchronous,0.37761730608509014,0.0,1,0,1
interoceptive,0.0112641997724696,True,asynchronous,0.39505743549375233,0.0,1,0,1
interoceptive,0.010137779795222639,True,asynchronous,0.4388595029163691,0.09588521474105446,1,0,1
interoceptive,0.01,False,asynchronous,0.48058628661455793,0.029662392050692647,1,0,1
interoceptive,0.01,False,synchronous,0.4407488742554843,0.20199003103053237,1,0,1
interoceptive,0.01,True,asynchronous,0.5606383699486392,0.02881039532698578,1,0,1
interoceptive,0.01,False,asynchronous,0.5455964036330416,0.09647405261650657,1,0,1
interoceptive,0.01,False,asynchronous,0.5911780493567171,0.17501751081102762,1,0,1
interoceptive,0.01,False,asynchronous,0.33477391044118776,0.06155327609657536,1,0,1
interoceptive,0.01,False,asynchronous,0.5575150231374577,0.2186532905844149,1,0,1
interoceptive,0.01,True,asynchronous,0.3917067138052253,0.14353466064725892,1,0,1
interoceptive,0.01,False,asynchronous,0.5828543871522803,0.18814328315249887,1,0,1
interoceptive,0.01,False,asynchronous,0.7019691418448094,0.0,1,0,1
interoceptive,0.01,False,asynchronous,0.5342378935979825,0.0,1,0,1
interoceptive,0.01,True,asynchronous,0.6355448305191669,0.07155772342767097,1,0,1
control,0.5,True,asynchronous,0.5390835833313897,0.4759269086039877,1,0,1
control,0.45,True,synchronous,0.39657703927941623,0.4283733699656707,1,0,1
control,0.405,True,asynchronous,0.39775224041123197,0.36448201218161225,1,0,1
control,0.36450000000000005,True,asynchronous,0.442718869530393,0.43004654648290475,1,0,1
control,0.32805000000000006,False,synchronous,0.5208891566205824,0.2962694248562953,1,0,1
control,0.2952450000000001,False,synchronous,0.6311143886306497,0.3749153521188648,1,0,1
control,0.2657205000000001,True,asynchronous,0.3693600614646713,0.2895252756388513,1,0,1
control,0.23914845000000007,False,synchronous,0.38110649846540684,0.3522868244707759,1,0,1
control,0.21523360500000008,True,asynchronous,0.6375013999515593,0.43583526063325506,1,0,1
control,0.19371024450000007,True,asynchronous,0.4576309291720946,0.16212572802351563,1,0,1
control,0.17433922005000008,False,asynchronous,0.5026771292428154,0.23423266123900566,1,0,1
control,0.15690529804500009,True,asynchronous,0.5156150849542078,0.2590042469550592,1,0,1
control,0.14121476824050008,True,synchronous,0.4339878094926653,0.2826149541627001,1,0,1
control,0.12709329141645007,False,asynchronous,0.5055964065754253,0.2895699964652626,1,0,1
control,0.11438396227480506,True,asynchronous,0.49071369097721373,0.34168297964348504,1,0,1
control,0.10294556604732455,False,asynchronous,0.28051665204674225,0.25535580707580685,1,0,1
control,0.0926510094425921,False,asynchronous,0.5474905458284972,0.2601577524637083,1,0,1
control,0.08338590849833288,False,synchronous,0.627245754216818,0.28282192653391675,1,0,1
control,0.0750473176484996,False,asynchronous,0.4037325258632836,0.44988339392713983,1,0,1
control,0.06754258588364964,True,asynchronous,0.35352981227079683,0.28278904714561476,1,0,1
control,0.06078832729528468,True,synchronous,0.5698580509829277,0.3512995652607124,1,0,1
control,0.05470949456575622,False,asynchronous,0.4070002575512496,0.14466123171312772,1,0,1
control,0.0492385451091806,True,asynchronous,0.3331407168385624,0.12373934887132576,1,0,1
control,0.04431469059826254,True,synchronous,0.4007380234095523,0.3947028052756909,1,0,1
control,0.039883221538436285,False,asynchronous,0.29092590855457157,0.370144828285236,1,0,1
control,0.03589489938459266,False,asynchronous,0.5895828275311893,0.15475708818526804,1,0,1
control,0.032305409446133394,True,synchronous,0.6204087976055634,0.30485763080281736,1,0,1
control,0.029074868501520055,True,synchronous,0.5147805815938671,0.24837885132575843,1,0,1
control,0.02616738165136805,True,asynchronous,0.5861885883148756,0.18857815668411287,1,0,1
control,0.023550643486231246,True,asynchronous,0.5739244730074183,0.061377887747468274,1,0,1
control,0.021195579137608122,False,asynchronous,0.5647512625248409,0.16434507607983473,1,0,1
control,0.01907602122384731,True,asynchronous,0.5565501276212512,0.19233336678518073,1,0,1
control,0.01716841910146258,True,asynchronous,0.43465271747293904,0.2256468268895996,1,0,1
control,0.015451577191316321,False,asynchronous,0.5145600535382514,0.26997575301405624,1,0,1
control,0.01390641947218469,True,asynchronous,0.5607393073408732,0.2550805251888123,1,0,1
control,0.012515777524966222,False,synchronous,0.28879499970623584,0.26800142530078275,1,0,1
control,0.0112641997724696,True,asynchronous,0.5728787088836615,0.14611650848681235,1,0,1
control,0.010137779795222639,False,asynchronous,0.24587824977643924,0.20857364297744246,1,0,1
control,0.01,False,asynchronous,0.46418708981709045,0.24331423824814566,1,0,1
control,0.01,False,asynchronous,0.34562632823396816,0.1380497486487096,1,0,1
control,0.01,True,asynchronous,0.6006188628997527,0.21582172725388193,1,0,1
control,0.01,False,asynchronous,0.48036046081042494,0.12760556782508173,1,0,1
control,0.01,True,asynchronous,0.48239310032814037,0.40628432418981086,1,0,1
control,0.01,True,synchronous,0.3870177559145197,0.3965443506188948,1,0,1
control,0.01,True,asynchronous,0.5057111015749839,0.11869834890398878,1,0,1
control,0.01,True,synchronous,0.6547493001684265,0.37512611869865053,1,0,1
control,0.01,False,asynchronous,0.5308295205770056,0.36950347389847704,1,0,1
control,0.01,False,synchronous,0.4042901055638424,0.22688779256149041,1,0,1
control,0.01,True,asynchronous,0.5120043256535376,0.0966263456201378,1,0,1
control,0.01,False,asynchronous,0.5271735550349711,0.3134604444138196,1,0,1
exteroceptive,0.5,True,synchronous,0.6394383762646297,0.5182417642607681,1,0,1
exteroceptive,0.45,False,asynchronous,0.7134180968759464,0.45548456594423437,1,0,1
exteroceptive,0.405,True,asynchronous,0.5024568806395453,0.2908145526697417,1,0,1
exteroceptive,0.36450000000000005,False,synchronous,0.5229900062484618,0.46152631436716124,1,0,1
exteroceptive,0.32805000000000006,False,synchronous,0.3120004316126604,0.5694274214303888,1,0,1
exteroceptive,0.2952450000000001,False,asynchronous,0.7033943467598823,0.18132744177123594,1,0,1
exteroceptive,0.2657205000000001,True,synchronous,0.48829419300745,0.45815903838791905,1,0,1
exteroceptive,0.23914845000000007,True,asynchronous,0.5050276055868871,0.3165106768185319,1,0,1
exteroceptive,0.21523360500000008,False,asynchronous,0.5182109104781103,0.2184248287271625,1,0,1
exteroceptive,0.19371024450000007,True,asynchronous,0.36271977181554094,0.1773202867455797,1,0,1
exteroceptive,0.17433922005000008,False,asynchronous,0.6379134637437902,0.4372857433484757,1,0,1
exteroceptive,0.15690529804500009,False,asynchronous,0.3928861240721172,0.37016466156156064,1,0,1
exteroceptive,0.14121476824050008,False,asynchronous,0.4356374112488498,0.2820108099007312,1,0,1
exteroceptive,0.12709329141645007,True,asynchronous,0.49839716297460407,0.2102246783051623,1,0,1
exteroceptive,0.11438396227480506,True,asynchronous,0.5422427108393061,0.04185158996327834,1,0,1
exteroceptive,0.10294556604732455,False,asynchronous,0.5109907161029307,0.038033591833614405,1,0,1
exteroceptive,0.0926510094425921,False,asynchronous,0.5172054837872195,0.2544980734670478,1,0,1
exteroceptive,0.08338590849833288,False,asynchronous,0.36349922558139003,0.30792662672821497,1,0,1
exteroceptive,0.0750473176484996,False,asynchronous,0.5927206300848518,0.3248130469654493,1,0,1
exteroceptive,0.06754258588364964,False,asynchronous,0.5463707704903338,0.12288700624454009,1,0,1
exteroceptive,0.06078832729528468,True,asynchronous,0.461134185579661,0.33302863888536616,1,0,1
exteroceptive,0.05470949456575622,True,synchronous,0.33667664811217807,0.25916645080807055,1,0,1
exteroceptive,0.0492385451091806,False,synchronous,0.3485209029176563,0.11345842427177,1,0,1
exteroceptive,0.04431469059826254,True,synchronous,0.46285974700412885,0.22261134913392056,1,0,1
exteroceptive,0.039883221538436285,True,asynchronous,0.4916588900519158,0.2576480956336888,1,0,1
exteroceptive,0.03589489938459266,False,asynchronous,0.48526843500637057,0.10302652769486799,1,0,1
exteroceptive,0.032305409446133394,True,asynchronous,0.48867083983012627,0.3431426397576246,1,0,1
exteroceptive,0.029074868501520055,False,asynchronous,0.38086724494669216,0.07664130055559136,1,0,1
exteroceptive,0.02616738165136805,False,asynchronous,0.5489417195517343,0.13723774230590868,1,0,1
exteroceptive,0.023550643486231246,True,asynchronous,0.4696230097773417,0.022177392754934716,1,0,1
exteroceptive,0.021195579137608122,True,asynchronous,0.32481646614386794,0.1319652080504912,1,0,1
exteroceptive,0.01907602122384731,True,asynchronous,0.35761474932160003,0.36324180674594575,1,0,1
exteroceptive,0.01716841910146258,True,asynchronous,0.47808315386626593,0.17080982557709334,1,0,1
exteroceptive,0.015451577191316321,True,synchronous,0.5466985448254557,0.13552629443001746,1,0,1
exteroceptive,0.01390641947218469,True,asynchronous,0.44667270784654417,0.25755794627514816,1,0,1
exteroceptive,0.012515777524966222,True,asynchronous,0.5517215075373093,0.010715941033759752,1,0,1
exteroceptive,0.0112641997724696,True,synchronous,0.5551468123519048,0.10327068706829953,1,0,1
exteroceptive,0.010137779795222639,True,asynchronous,0.30151940203490774,0.0,1,0,1
exteroceptive,0.01,False,asynchronous,0.5759603465552345,0.13566175335883127,1,0,1
exteroceptive,0.01,False,asynchronous,0.380696158810136,0.1940006480939991,1,0,1
exteroceptive,0.01,True,asynchronous,0.4711656183809878,0.16820785854884196,1,0,1
exteroceptive,0.01,True,synchronous,0.5181232205886345,0.16864252026703375,1,0,1
exteroceptive,0.01,False,asynchronous,0.6452785424038165,0.2778472177580389,1,0,1
exteroceptive,0.01,False,synchronous,0.42852306484901614,0.21655930425735323,1,0,1
exteroceptive,0.01,False,asynchronous,0.5506149592407245,0.2313773407444154,1,0,1
exteroceptive,0.01,True,asynchronous,0.4766514325778197,0.16995789472871492,1,0,1
exteroceptive,0.01,False,synchronous,0.5614291827737451,0.22682755179810632,1,0,1
exteroceptive,0.01,True,asynchronous,0.5330997899194759,0.3157011748426255,1,0,1
exteroceptive,0.01,True,synchronous,0.652951955708313,0.21218710591151185,1,0,1
exteroceptive,0.01,True,asynchronous,0.47699411958808485,0.03488882752038022,1,0,1
exteroceptive,0.01,False,synchronous,0.5184722827154019,0.26174259345622464,2,0,1
exteroceptive,0.01,True,asynchronous,0.49937053207190446,0.1917557489432917,2,0,1
exteroceptive,0.01,False,synchronous,0.44089806254840946,0.20747519281199617,2,0,1
exteroceptive,0.01,False,synchronous,0.3729024357426261,0.15535691769311738,2,0,1
exteroceptive,0.01,True,asynchronous,0.4996086169612523,0.04814950627316922,2,0,1
exteroceptive,0.01,True,asynchronous,0.48625483672074304,0.0,2,0,1
exteroceptive,0.01,True,asynchronous,0.7193787022701866,0.16106449064505213,2,0,1
exteroceptive,0.01,True,asynchronous,0.5881575269445173,0.056831828961973876,2,0,1
exteroceptive,0.01,False,asynchronous,0.40419794121413677,0.3233833883472358,2,0,1
exteroceptive,0.01,True,asynchronous,0.5496608464974806,0.10065910929249512,2,0,1
exteroceptive,0.01,False,asynchronous,0.5652201951199819,0.15286563648165452,2,0,1
exteroceptive,0.01,False,asynchronous,0.33903300427686767,0.14936668524316643,2,0,1
exteroceptive,0.01,False,asynchronous,0.4402415998860509,0.02191925510900644,2,0,1
exteroceptive,0.01,False,asynchronous,0.6688987564156456,0.0,2,0,1
exteroceptive,0.01,True,asynchronous,0.4557746079380824,0.032618934491214086,2,0,1
exteroceptive,0.01,True,asynchronous,0.45045902677302646,0.3636686186640224,2,0,1
exteroceptive,0.01,False,synchronous,0.5083426759786818,0.2980412251741766,2,0,1
exteroceptive,0.01,False,asynchronous,0.34857802883390304,0.11761558302556341,2,0,1
exteroceptive,0.01,True,asynchronous,0.6983466843970312,0.38899025754884203,2,0,1
exteroceptive,0.01,True,asynchronous,0.4871741613084396,0.0024277379405003574,2,0,1
exteroceptive,0.01,False,asynchronous,0.38712595321445253,0.1769890216362319,2,0,1
exteroceptive,0.01,True,asynchronous,0.44876240220550834,0.29660690072272644,2,0,1
exteroceptive,0.01,True,asynchronous,0.48393419776714486,0.11238023299910996,2,0,1
exteroceptive,0.01,True,asynchronous,0.4637573594224145,0.08572753463481164,2,0,1
exteroceptive,0.01,False,asynchronous,0.26989195708524155,0.2671195333390435,2,0,1
exteroceptive,0.01,False,asynchronous,0.48356856518590596,0.14446692897410923,2,0,1
exteroceptive,0.01,True,synchronous,0.4913669515683068,0.2980833254313465,2,0,1
exteroceptive,0.01,False,asynchronous,0.5357957154833786,0.012576080938420692,2,0,1
exteroceptive,0.01,False,asynchronous,0.30756369157940683,0.08329894329569351,2,0,1
exteroceptive,0.01,True,synchronous,0.5044809589506171,0.2552103488541637,2,0,1
exteroceptive,0.01,True,asynchronous,0.41364781950749047,0.179762105305991,2,0,1
exteroceptive,0.01,True,asynchronous,0.48310258041023096,0.32322131579501245,2,0,1
exteroceptive,0.01,True,asynchronous,0.3813305283092591,0.2701618135908233,2,0,1
exteroceptive,0.01,False,asynchronous,0.6199443059664439,0.22304748042139944,2,0,1
exteroceptive,0.01,True,asynchronous,0.4779929518716894,0.11157640096036292,2,0,1
exteroceptive,0.01,False,asynchronous,0.48308618197038083,0.1445987242464425,2,0,1
exteroceptive,0.01,True,asynchronous,0.4746085865011609,0.19009478943535604,2,0,1
exteroceptive,0.01,True,synchronous,0.6363995705466023,0.29809799423507555,2,0,1
exteroceptive,0.01,True,synchronous,0.6404762885658133,0.14834096886890963,2,0,1
exteroceptive,0.01,True,synchronous,0.4572365827894131,0.29603882749437604,2,0,1
exteroceptive,0.01,False,asynchronous,0.5478387797048714,0.24176182998383028,2,0,1
exteroceptive,0.01,True,synchronous,0.40665713920785695,0.25829074175227323,2,0,1
exteroceptive,0.01,True,asynchronous,0.43954366410874657,0.3039231043022321,2,0,1
exteroceptive,0.01,True,asynchronous,0.5503886418513829,0.17272252427898538,2,0,1
exteroceptive,0.01,False,asynchronous,0.4707772630639619,0.0970631018161726,2,0,1
exteroceptive,0.01,True,asynchronous,0.6179516269037066,0.0,2,0,1
exteroceptive,0.01,True,synchronous,0.6203109126121539,0.326675608908331,2,0,1
exteroceptive,0.01,True,asynchronous,0.48724363816031097,0.2121437758010566,2,0,1
exteroceptive,0.01,False,asynchronous,0.6061667371764538,0.2541311355983564,2,0,1
exteroceptive,0.01,True,asynchronous,0.4964090583626586,0.10187036738275165,2,0,1
interoceptive,0.01,True,asynchronous,0.5924513187635715,0.0986262015622462,2,0,1
interoceptive,0.01,True,asynchronous,0.4900487558725969,0.1750439123804357,2,0,1
interoceptive,0.01,False,asynchronous,0.5077402339784839,0.0,2,0,1
interoceptive,0.01,True,synchronous,0.4073574207573716,0.12489133005037845,2,0,1
interoceptive,0.01,False,asynchronous,0.36042268687739426,0.0850897284847416,2,0,1
interoceptive,0.01,False,asynchronous,0.5477038117465636,0.0,2,0,1
interoceptive,0.01,True,asynchronous,0.5844193503940602,0.01599435745736596,2,0,1
interoceptive,0.01,False,asynchronous,0.5119922447479529,0.0,2,0,1
interoceptive,0.01,True,asynchronous,0.4597380800047711,0.20802231002205657,2,0,1
interoceptive,0.01,True,asynchronous,0.7650116715249955,0.14494921960777246,2,0,1
interoceptive,0.01,False,asynchronous,0.47211816217498065,0.0406148242512928,2,0,1
interoceptive,0.01,True,asynchronous,0.5033594360435739,0.05233512189269954,2,0,1
interoceptive,0.01,True,asynchronous,0.6199647196502731,0.058825040392461,2,0,1
interoceptive,0.01,False,synchronous,0.5128054568219422,0.22693872327322384,2,0,1
interoceptive,0.01,False,asynchronous,0.5674481274525135,0.1978316048707603,2,0,1
interoceptive,0.01,False,asynchronous,0.372288816375854,0.21302924638992654,2,0,1
interoceptive,0.01,False,asynchronous,0.40752936528004424,0.10884983065747468,2,0,1
interoceptive,0.01,True,asynchronous,0.6015155929581911,0.11414110138152904,2,0,1
interoceptive,0.01,True,asynchronous,0.4468400359255204,0.0,2,0,1
interoceptive,0.01,False,asynchronous,0.50135710292057,0.1589492676642238,2,0,1
interoceptive,0.01,True,asynchronous,0.4486953090124767,0.1556111344199438,2,0,1
interoceptive,0.01,False,asynchronous,0.5743414884538598,0.08961211211307074,2,0,1
interoceptive,0.01,False,asynchronous,0.3241249854903821,0.0,2,0,1
interoceptive,0.01,True,asynchronous,0.5466124168693749,0.0,2,0,1
interoceptive,0.01,False,asynchronous,0.32400588840074634,0.0,2,0,1
interoceptive,0.01,True,asynchronous,0.5180764847322691,0.13699969386856164,2,0,1
interoceptive,0.01,False,synchronous,0.45431267382592155,0.37683781560881496,2,0,1
interoceptive,0.01,True,asynchronous,0.6643508894294878,0.08361256435982789,2,0,1
interoceptive,0.01,False,synchronous,0.4255209583190251,0.07649051722033391,2,0,1
interoceptive,0.01,True,asynchronous,0.5795975752753073,0.050926351871775605,2,0,1
interoceptive,0.01,False,synchronous,0.5457415059212157,0.18547474560411148,2,0,1
interoceptive,0.01,False,asynchronous,0.5150961372282385,0.1299680117500927,2,0,1
interoceptive,0.01,True,synchronous,0.6421276840687663,0.08716798439632002,2,0,1
interoceptive,0.01,True,asynchronous,0.5221258511200371,0.10797110017866918,2,0,1
interoceptive,0.01,True,asynchronous,0.48460165982567677,0.10431300180985778,2,0,1
interoceptive,0.01,False,asynchronous,0.4505843008900434,0.09736341724514663,2,0,1
interoceptive,0.01,False,asynchronous,0.574332058181226,0.15762058309280236,2,0,1
interoceptive,0.01,True,asynchronous,0.5508105341473986,0.04699375509468922,2,0,1
interoceptive,0.01,False,asynchronous,0.5001751391145933,0.0820461997223206,2,0,1
interoceptive,0.01,True,asynchronous,0.43008176700654177,0.0024915459768752868,2,0,1
interoceptive,0.01,True,asynchronous,0.5403824727625208,0.11702615183557989,2,0,1
interoceptive,0.01,False,asynchronous,0.48107912318244667,0.1740518689998044,2,0,1
interoceptive,0.01,True,asynchronous,0.33532489553671196,0.0,2,0,1
interoceptive,0.01,True,asynchronous,0.6156408554438821,0.15227475744651925,2,0,1
interoceptive,0.01,True,asynchronous,0.5473814459710453,0.0,2,0,1
interoceptive,0.01,True,asynchronous,0.3506560440004382,0.021258021428810107,2,0,1
interoceptive,0.01,False,asynchronous,0.46010806403112103,0.3228064492474927,2,0,1
interoceptive,0.01,True,asynchronous,0.4100659767065211,0.11491145347753728,2,0,1
interoceptive,0.01,True,asynchronous,0.5078850897038095,0.0,2,0,1
interoceptive,0.01,True,asynchronous,0.5034642479452938,0.3154743829644981,2,0,1
control,0.01,True,asynchronous,0.4665535162632487,0.08880180212210859,2,0,1
control,0.01,True,asynchronous,0.5895794653218932,0.36248372166076714,2,0,1
control,0.01,False,synchronous,0.3405257619282308,0.3145029953565757,2,0,1
control,0.01,True,asynchronous,0.4241501525504648,0.10891853295667707,2,0,1
control,0.01,True,asynchronous,0.44514537524266234,0.0027747574291347166,2,0,1
control,0.01,False,synchronous,0.6025516327909486,0.28117436347584407,2,0,1
control,0.01,True,asynchronous,0.3571520316016344,0.26607714364058827,2,0,1
control,0.01,True,asynchronous,0.4984663416749342,0.09865701024820592,2,0,1
control,0.01,False,synchronous,0.38771925075589825,0.18102395717446743,2,0,1
control,0.01,False,asynchronous,0.5806925463528252,0.25550216184289215,2,0,1
control,0.01,False,synchronous,0.575108544346196,0.3106459785825876,2,0,1
control,0.01,False,asynchronous,0.36529602053031723,0.18228609829550987,2,0,1
control,0.01,False,asynchronous,0.46322451212577165,0.24387049160991184,2,0,1
control,0.01,True,synchronous,0.46230173456320084,0.2910279136913745,2,0,1
control,0.01,True,synchronous,0.6418387700772527,0.4465114093690372,2,0,1
control,0.01,False,asynchronous,0.46426656209518385,0.12802130515295296,2,0,1
control,0.01,True,asynchronous,0.7222503144110235,0.2622014018135576,2,0,1
control,0.01,False,asynchronous,0.35442424303062126,0.24211788840657758,2,0,1
control,0.01,True,synchronous,0.7577760574998386,0.444894795143994,2,0,1
control,0.01,False,asynchronous,0.5203591469162853,0.26680773616862635,2,0,1
control,0.01,False,asynchronous,0.48611000750455235,0.14435530749784842,2,0,1
control,0.01,True,asynchronous,0.3870975038149381,0.16054525414755438,2,0,1
control,0.01,False,asynchronous,0.5280728525361461,0.5843196374011617,2,0,1
control,0.01,True,asynchronous,0.48515150854449246,0.1847873141620004,2,0,1
control,0.01,False,synchronous,0.7250953743345894,0.29395865713515057,2,0,1
control,0.01,False,asynchronous,0.5708799087947116,0.3012405797549082,2,0,1
control,0.01,False,asynchronous,0.49765384948056285,0.14071325296592485,2,0,1
control,0.01,True,synchronous,0.5687046276756963,0.19153658296134496,2,0,1
control,0.01,False,asynchronous,0.4382404519468911,0.33293550637064667,2,0,1
control,0.01,False,asynchronous,0.4981130395282353,0.3739900731825059,2,0,1
control,0.01,True,synchronous,0.5044375114591966,0.28788657050774513,2,0,1
control,0.01,True,asynchronous,0.6216351411604005,0.21657561961071922,2,0,1
control,0.01,False,asynchronous,0.4064296336374445,0.16366481574989078,2,0,1
control,0.01,False,asynchronous,0.46384223984834777,0.15592103725660428,2,0,1
control,0.01,False,asynchronous,0.7319312850972014,0.21822536581288687,2,0,1
control,0.01,True,asynchronous,0.6077270462328984,0.19751420106299433,2,0,1
control,0.01,False,asynchronous,0.49533960891902246,0.28380189446950366,2,0,1
control,0.01,False,asynchronous,0.5625372173407039,0.28882667274646423,2,0,1
control,0.01,True,asynchronous,0.622487813551109,0.17372240615127915,2,0,1
control,0.01,True,asynchronous,0.3920525130615623,0.29428859335205176,2,0,1
control,0.01,False,asynchronous,0.586201747012345,0.2729738654312904,2,0,1
control,0.01,False,synchronous,0.4911058927214866,0.27795341762377596,2,0,1
control,0.01,False,asynchronous,0.4621479221926949,0.12709704011510647,2,0,1
control,0.01,True,synchronous,0.4882381867777169,0.19977247869631148,2,0,1
control,0.01,False,asynchronous,0.4483798197117222,0.23781798543747606,2,0,1
control,0.01,True,asynchronous,0.5288487169453389,0.19283791632897185,2,0,1
control,0.01,True,asynchronous,0.5936588509737561,0.2652002513238791,2,0,1
control,0.01,True,asynchronous,0.532152656863238,0.15049464750567737,2,0,1
control,0.01,True,asynchronous,0.42831570730146795,0.2724445549963795,2,0,1
control,0.01,True,asynchronous,0.5906155492202467,0.33387153492069904,2,0,1
control,0.01,True,asynchronous,0.503925438050892,0.1772634323487396,3,0,1
control,0.01,True,asynchronous,0.49669530359802805,0.18803420103254873,3,0,1
control,0.01,True,synchronous,0.7171828576953019,0.3802062763555069,3,0,1
control,0.01,True,asynchronous,0.5533707858847889,0.08365939661374197,3,0,1
control,0.01,True,asynchronous,0.506402527795586,0.28345494487665057,3,0,1
control,0.01,True,synchronous,0.5867748437910745,0.4013695973635478,3,0,1
control,0.01,True,asynchronous,0.42924616636260254,0.15510701605692917,3,0,1
control,0.01,False,asynchronous,0.4302225038939105,0.2912505948953007,3,0,1
control,0.01,False,asynchronous,0.66006136860286,0.07038259062085006,3,0,1
control,0.01,False,synchronous,0.4514873402032533,0.2558917724801769,3,0,1
control,0.01,False,synchronous,0.5569151566654938,0.24630673500353978,3,0,1
control,0.01,False,asynchronous,0.5890912033910722,0.23912160974669608,3,0,1
control,0.01,False,synchronous,0.7110314988247142,0.1850831225479662,3,0,1
control,0.01,True,asynchronous,0.5374370686440624,0.09142387307028632,3,0,1
control,0.01,True,asynchronous,0.5346612693882581,0.1190436979026489,3,0,1
control,0.01,True,asynchronous,0.5059140316214152,0.22920436102153885,3,0,1
control,0.01,False,asynchronous,0.5580717592754328,0.21138690014479913,3,0,1
control,0.01,True,asynchronous,0.5639911388608915,0.2270055635211994,3,0,1
control,0.01,True,asynchronous,0.3054766729546666,0.26272442787067235,3,0,1
control,0.01,True,asynchronous,0.34445816603108576,0.08439774710051776,3,0,1
control,0.01,False,asynchronous,0.4914235101149359,0.017213659337573295,3,0,1
control,0.01,False,asynchronous,0.4985852973440199,0.2999658734501017,3,0,1
control,0.01,False,asynchronous,0.5605616787361728,0.07708865953325711,3,0,1
control,0.01,False,asynchronous,0.5177360188981193,0.18353681142112502,3,0,1
control,0.01,False,asynchronous,0.5414551842084989,0.2625029191430916,3,0,1
control,0.01,False,synchronous,0.36204080606746175,0.3052762219672828,3,0,1
control,0.01,True,asynchronous,0.7501220197820181,0.23887368563483047,3,0,1
control,0.01,True,asynchronous,0.48108877423437185,0.25789927381860456,3,0,1
control,0.01,False,asynchronous,0.41730181016759105,0.21689745508541186,3,0,1
control,0.01,True,asynchronous,0.4307800479524137,0.1135024258818199,3,0,1
control,0.01,True,asynchronous,0.5000835757126625,0.24875397109671205,3,0,1
control,0.01,True,asynchronous,0.4543450691555876,0.2017650878571292,3,0,1
control,0.01,False,asynchronous,0.6436393857262395,0.23625979327718713,3,0,1
control,0.01,False,synchronous,0.3335084352832841,0.29931565074578903,3,0,1
control,0.01,True,asynchronous,0.6176387721827221,0.36425627957527,3,0,1
control,0.01,False,synchronous,0.4254626400155671,0.21030970581763975,3,0,1
control,0.01,False,asynchronous,0.43042265244936323,0.2558753185949966,3,0,1
control,0.01,False,asynchronous,0.5506777992502574,0.13293291202121335,3,0,1
control,0.01,False,synchronous,0.5944671149365923,0.2674157482312515,3,0,1
control,0.01,False,synchronous,0.37352896776724,0.4449892590632745,3,0,1
control,0.01,False,asynchronous,0.46073372947872376,0.09323966112355805,3,0,1
control,0.01,True,asynchronous,0.6064418954781607,0.20570714735343598,3,0,1
control,0.01,False,synchronous,0.35284176795000927,0.43718113413975673,3,0,1
control,0.01,True,asynchronous,0.4348134568365111,0.4430356609466279,3,0,1
control,0.01,False,synchronous,0.44210583798645997,0.03375774032658155,3,0,1
control,0.01,False,synchronous,0.4981630034186502,0.2571174406400304,3,0,1
control,0.01,False,asynchronous,0.49675784361358016,0.28747759100111175,3,0,1
control,0.01,False,asynchronous,0.5282429118647889,0.11378531912810196,3,0,1
control,0.01,True,asynchronous,0.4294024549561587,0.09561985911814169,3,0,1
control,0.01,False,asynchronous,0.4243789821575739,0.06651433847844598,3,0,1
exteroceptive,0.01,True,asynchronous,0.6073692504306708,0.10910386922623086,3,0,1
exteroceptive,0.01,True,synchronous,0.3793220919903826,0.11167572734990755,3,0,1
exteroceptive,0.01,True,asynchronous,0.46435975562895415,0.36215984126839157,3,0,1
exteroceptive,0.01,False,asynchronous,0.34128111290848256,0.15072333401018195,3,0,1
exteroceptive,0.01,False,asynchronous,0.47959966021169204,0.057764954227062654,3,0,1
exteroceptive,0.01,False,asynchronous,0.5684447304637881,0.09242405052851196,3,0,1
exteroceptive,0.01,False,asynchronous,0.28614662099569366,0.24956932609395305,3,0,1
exteroceptive,0.01,False,asynchronous,0.5039691773862657,0.05254021426164704,3,0,1
exteroceptive,0.01,True,synchronous,0.587622219332241,0.4898649685680526,3,0,1
exteroceptive,0.01,True,asynchronous,0.5059438226075441,0.09610274480037802,3,0,1
exteroceptive,0.01,True,synchronous,0.5405386333463122,0.15440747173770558,3,0,1
exteroceptive,0.01,False,asynchronous,0.6099788001157922,0.09713525238583137,3,0,1
exteroceptive,0.01,False,synchronous,0.3915179080645417,0.10431324977696818,3,0,1
exteroceptive,0.01,True,asynchronous,0.34745852455625054,0.2569036890771542,3,0,1
exteroceptive,0.01,False,asynchronous,0.6274277960191996,0.028878085232728806,3,0,1
exteroceptive,0.01,True,asynchronous,0.3704653311914433,0.23489440795256758,3,0,1
exteroceptive,0.01,False,asynchronous,0.5733365157378872,0.14074031812396198,3,0,1
exteroceptive,0.01,True,asynchronous,0.29418229932713846,0.23380792646573556,3,0,1
exteroceptive,0.01,True,asynchronous,0.41218515141663786,0.23994894495523494,3,0,1
exteroceptive,0.01,False,synchronous,0.42382464465383096,0.14247506533194698,3,0,1
exteroceptive,0.01,False,asynchronous,0.6899782221159856,0.3291746718081753,3,0,1
exteroceptive,0.01,False,asynchronous,0.5455120410797365,0.21893354762900863,3,0,1
exteroceptive,0.01,False,synchronous,0.5243545119887792,0.32278815757396667,3,0,1
exteroceptive,0.01,False,asynchronous,0.39454660714496775,0.051410586582746776,3,0,1
exteroceptive,0.01,False,synchronous,0.4149630541153532,0.16417220622285938,3,0,1
exteroceptive,0.01,True,synchronous,0.6503288413190421,0.12271528221909093,3,0,1
exteroceptive,0.01,False,synchronous,0.23197707813037333,0.2042053737693278,3,0,1
exteroceptive,0.01,False,asynchronous,0.6020274759925132,0.1934046202521178,3,0,1
exteroceptive,0.01,True,asynchronous,0.5697121281790695,0.19138192038795188,3,0,1
exteroceptive,0.01,False,synchronous,0.3394909727884235,0.08992555905859513,3,0,1
exteroceptive,0.01,True,asynchronous,0.44511314600975077,0.12670170553670634,3,0,1
exteroceptive,0.01,True,synchronous,0.6901549500508488,0.2997568776413564,3,0,1
exteroceptive,0.01,False,asynchronous,0.4240371178570674,0.13018608122058092,3,0,1
exteroceptive,0.01,False,asynchronous,0.41810312906317515,0.04063386725723053,3,0,1
exteroceptive,0.01,False,asynchronous,0.603310276945556,0.18619503966096487,3,0,1
exteroceptive,0.01,True,asynchronous,0.3821293006076812,0.03960690044698992,3,0,1
exteroceptive,0.01,False,synchronous,0.40704002461472144,0.29755503382964044,3,0,1
exteroceptive,0.01,True,asynchronous,0.47790724415055824,0.22544830604542354,3,0,1
exteroceptive,0.01,False,asynchronous,0.4415795161401364,0.0650825697854876,3,0,1
exteroceptive,0.01,False,asynchronous,0.4317691331240495,0.040467338464862265,3,0,1
exteroceptive,0.01,False,asynchronous,0.6553190259620775,0.25986896185254255,3,0,1
exteroceptive,0.01,True,synchronous,0.5574413451035931,0.38182074316203957,3,0,1
exteroceptive,0.01,False,synchronous,0.5359399625851571,0.2409147339174878,3,0,1
exteroceptive,0.01,False,asynchronous,0.4820403257438305,0.24270324092435863,3,0,1
exteroceptive,0.01,False,asynchronous,0.5490342004239461,0.20693471465488725,3,0,1
exteroceptive,0.01,False,asynchronous,0.46310770731412915,0.1879015278384697,3,0,1
exteroceptive,0.01,False,asynchronous,0.4666111550232195,0.0789218909034602,3,0,1
exteroceptive,0.01,False,asynchronous,0.6616933865973825,0.03059137241333057,3,0,1
exteroceptive,0.01,False,synchronous,0.4157510877825331,0.08685129667004444,3,0,1
exteroceptive,0.01,False,asynchronous,0.43400724878280794,0.16817688139059203,3,0,1
interoceptive,0.01,True,asynchronous,0.5356835551674851,0.0,3,0,1
interoceptive,0.01,False,asynchronous,0.4394320873703741,0.019478150885843058,3,0,1
interoceptive,0.01,False,asynchronous,0.3815629909952138,0.004503541008212167,3,0,1
interoceptive,0.01,False,asynchronous,0.5370689461861197,0.16532308708782184,3,0,1
interoceptive,0.01,False,asynchronous,0.5805630781699962,0.07698427692535786,3,0,1
interoceptive,0.01,False,asynchronous,0.3895386851025537,0.004221124027099066,3,0,1
interoceptive,0.01,False,asynchronous,0.5967401560120136,0.0,3,0,1
interoceptive,0.01,False,asynchronous,0.4517818201921569,0.3355988039682708,3,0,1
interoceptive,0.01,False,asynchronous,0.48750462449747445,0.033452381278317435,3,0,1
interoceptive,0.01,True,asynchronous,0.48166826217015724,0.0,3,0,1
interoceptive,0.01,True,asynchronous,0.6310308638647754,0.14087196535569796,3,0,1
interoceptive,0.01,False,asynchronous,0.48230043114192855,0.18839730698658555,3,0,1
interoceptive,0.01,False,asynchronous,0.6575183674031003,0.11387710930475063,3,0,1
interoceptive,0.01,True,asynchronous,0.5385762537201872,0.0006585367412637322,3,0,1
interoceptive,0.01,False,asynchronous,0.5131753345955312,0.11088683223575271,3,0,1
interoceptive,0.01,True,asynchronous,0.3919543327417097,0.0066786477423682045,3,0,1
interoceptive,0.01,False,asynchronous,0.2925841652373254,0.17224559310663715,3,0,1
interoceptive,0.01,True,synchronous,0.5269847588740483,0.16818696926761922,3,0,1
interoceptive,0.01,True,asynchronous,0.5820656197875388,0.0,3,0,1
interoceptive,0.01,True,asynchronous,0.5395209590624187,0.10916459320014778,3,0,1
interoceptive,0.01,False,asynchronous,0.3318419008713149,0.025145281992775936,3,0,1
interoceptive,0.01,True,asynchronous,0.6088370398906913,0.021568281563406788,3,0,1
interoceptive,0.01,True,asynchronous,0.5532849344258914,0.09268818334953731,3,0,1
interoceptive,0.01,False,asynchronous,0.688830472469137,0.08360294688632436,3,0,1
interoceptive,0.01,True,asynchronous,0.4419759261606573,0.0,3,0,1
interoceptive,0.01,False,asynchronous,0.686481430776517,0.09606063719236489,3,0,1
interoceptive,0.01,True,asynchronous,0.4269177015423469,0.01669586222549877,3,0,1
interoceptive,0.01,False,asynchronous,0.3917878931877966,0.1722585546143556,3,0,1
interoceptive,0.01,True,asynchronous,0.451505118199945,0.0,3,0,1
interoceptive,0.01,True,asynchronous,0.3351212235788231,0.0,3,0,1
interoceptive,0.01,True,asynchronous,0.5367658352962359,0.0,3,0,1
interoceptive,0.01,False,asynchronous,0.34698508034927983,0.03678532710706015,3,0,1
interoceptive,0.01,True,asynchronous,0.447726497642974,0.1804823030892732,3,0,1
interoceptive,0.01,True,asynchronous,0.6412888652971508,0.0,3,0,1
interoceptive,0.01,True,asynchronous,0.416759113208457,0.00048446351535309795,3,0,1
interoceptive,0.01,False,asynchronous,0.4602701939224585,0.06092639968661867,3,0,1
interoceptive,0.01,False,asynchronous,0.5265203876217323,0.01545235246332264,3,0,1
interoceptive,0.01,False,asynchronous,0.5323588981950248,0.1181703350335293,3,0,1
interoceptive,0.01,False,asynchronous,0.39172934086531447,0.114952295502318,3,0,1
interoceptive,0.01,False,asynchronous,0.51456880137191,0.02546041089103531,3,0,1
interoceptive,0.01,True,asynchronous,0.4370217005756858,0.06391649951963141,3,0,1
interoceptive,0.01,False,asynchronous,0.4345304085124566,0.0,3,0,1
interoceptive,0.01,True,asynchronous,0.547159374347064,0.11750587178190905,3,0,1
interoceptive,0.01,True,asynchronous,0.4547013530749989,0.05008961150296242,3,0,1
interoceptive,0.01,False,asynchronous,0.7737831151910469,0.05672457809678122,3,0,1
interoceptive,0.01,False,asynchronous,0.4933512101919838,0.12236766839445434,3,0,1
interoceptive,0.01,True,asynchronous,0.3554222353479066,0.0,3,0,1
interoceptive,0.01,False,asynchronous,0.45130157852489794,0.038652720447159346,3,0,1
interoceptive,0.01,False,asynchronous,0.7281544094961159,0.1892207671252139,3,0,1
interoceptive,0.01,False,asynchronous,0.47242407275353276,0.18476604115391285,3,0,1
interoceptive,0.01,False,asynchronous,0.6473587111350761,0.006817253927649161,4,0,1
interoceptive,0.01,True,asynchronous,0.5332339361497129,0.17490851443468275,4,0,1
interoceptive,0.01,True,asynchronous,0.4409102250478258,0.09510806746641419,4,0,1
interoceptive,0.01,False,asynchronous,0.5191665246902453,0.20985687046017587,4,0,1
interoceptive,0.01,True,asynchronous,0.40781187415419173,0.05165785171247492,4,0,1
interoceptive,0.01,False,asynchronous,0.34397943775575107,0.10098201691480309,4,0,1
interoceptive,0.01,False,asynchronous,0.6512328436858608,0.25823753947234745,4,0,1
interoceptive,0.01,False,asynchronous,0.44704947530198935,0.0637856638993135,4,0,1
interoceptive,0.01,False,asynchronous,0.4591056338851318,0.004075494754946604,4,0,1
interoceptive,0.01,True,asynchronous,0.5841351279285876,0.027310258437725755,4,0,1
interoceptive,0.01,True,asynchronous,0.6191429796506718,0.035694298820479024,4,0,1
interoceptive,0.01,False,asynchronous,0.6591203364200608,0.25176672962203717,4,0,1
interoceptive,0.01,False,asynchronous,0.6729662090593957,0.0,4,0,1
interoceptive,0.01,False,asynchronous,0.3721765731699881,0.0,4,0,1
interoceptive,0.01,True,asynchronous,0.5746207234947265,0.28812610818799267,4,0,1
interoceptive,0.01,False,asynchronous,0.43590958168063726,0.18697156047168823,4,0,1
interoceptive,0.01,False,asynchronous,0.5280261762535716,0.0,4,0,1
interoceptive,0.01,False,asynchronous,0.49182153455436745,0.037709558980960546,4,0,1
interoceptive,0.01,True,asynchronous,0.573216721866315,0.08542763831910098,4,0,1
interoceptive,0.01,False,asynchronous,0.5871144100114106,0.11420429459566958,4,0,1
interoceptive,0.01,True,asynchronous,0.5321184069248557,0.1504988627574978,4,0,1
interoceptive,0.01,True,asynchronous,0.47951932743378295,0.0824393925894605,4,0,1
interoceptive,0.01,True,synchronous,0.5017213229067528,0.22413646175764995,4,0,1
interoceptive,0.01,False,asynchronous,0.3795071776025067,0.1991805255497336,4,0,1
interoceptive,0.01,True,synchronous,0.4151348532288268,0.09956544288225455,4,0,1
interoceptive,0.01,True,asynchronous,0.3507295669695194,0.18360702196861306,4,0,1
interoceptive,0.01,True,asynchronous,0.48938602411988796,0.0,4,0,1
interoceptive,0.01,True,asynchronous,0.45600247035324193,0.11782140785122687,4,0,1
interoceptive,0.01,True,asynchronous,0.7252007397801682,0.12231873700177723,4,0,1
interoceptive,0.01,False,asynchronous,0.3850756133865623,0.045253355079980004,4,0,1
interoceptive,0.01,True,asynchronous,0.4310645350827785,0.051521313855102766,4,0,1
interoceptive,0.01,True,asynchronous,0.5608675846918506,0.0,4,0,1
interoceptive,0.01,False,asynchronous,0.5306645128957874,0.0,4,0,1
interoceptive,0.01,False,asynchronous,0.43570234423141285,0.07965112616259731,4,0,1
interoceptive,0.01,True,asynchronous,0.604193036055994,0.29501469840191114,4,0,1
interoceptive,0.01,False,asynchronous,0.5229436190185489,0.0,4,0,1
interoceptive,0.01,True,asynchronous,0.3015821690599176,0.16965543883472123,4,0,1
interoceptive,0.01,False,synchronous,0.4586689734070574,0.1547201135671676,4,0,1
interoceptive,0.01,False,synchronous,0.3480233715542731,0.32918822461490926,4,0,1
interoceptive,0.01,True,asynchronous,0.5982835613919285,0.0,4,0,1
interoceptive,0.01,False,asynchronous,0.5349931592474739,0.14642751000747853,4,0,1
interoceptive,0.01,True,asynchronous,0.4005992522348225,0.0,4,0,1
interoceptive,0.01,True,asynchronous,0.5833259827133304,0.024224734562761266,4,0,1
interoceptive,0.01,True,synchronous,0.42618081558225873,0.18970963207656905,4,0,1
interoceptive,0.01,True,asynchronous,0.34912859643453636,0.0,4,0,1
interoceptive,0.01,True,asynchronous,0.5193623527360823,0.0,4,0,1
interoceptive,0.01,True,asynchronous,0.4517671912799717,0.08448559817646706,4,0,1
interoceptive,0.01,False,asynchronous,0.4066300276070623,0.017104975945015907,4,0,1
interoceptive,0.01,True,asynchronous,0.7587114900917362,0.09301103641170942,4,0,1
interoceptive,0.01,True,synchronous,0.46608683366800807,0.19636516747851573,4,0,1
control,0.01,True,asynchronous,0.33185678474491265,0.153196959555796,4,0,1
control,0.01,False,synchronous,0.5657842281025373,0.3270517555328376,4,0,1
control,0.01,False,asynchronous,0.49310927043130226,0.37381377888204004,4,0,1
control,0.01,True,asynchronous,0.5402560592224327,0.19397865081386195,4,0,1
control,0.01,True,asynchronous,0.5727956469796114,0.36200040305425507,4,0,1
control,0.01,False,asynchronous,0.5346526325390396,0.2882358391566405,4,0,1
control,0.01,False,asynchronous,0.6884082089538713,0.27968566185608695,4,0,1
control,0.01,True,asynchronous,0.49503991585227386,0.17633901449105943,4,0,1
control,0.01,True,asynchronous,0.5143323389328852,0.2228356146259436,4,0,1
control,0.01,True,asynchronous,0.5338208080283368,0.42552710506756847,4,0,1
control,0.01,False,asynchronous,0.5718345534935227,0.21560348974452734,4,0,1
control,0.01,True,synchronous,0.47429363596706664,0.2619811794667849,4,0,1
control,0.01,True,asynchronous,0.3652409282878737,0.3267771071348977,4,0,1
control,0.01,False,asynchronous,0.6903513548427502,0.12039152643390344,4,0,1
control,0.01,False,asynchronous,0.5730178912532274,0.2455077241203587,4,0,1
control,0.01,True,asynchronous,0.4330053164129031,0.19488588885797145,4,0,1
control,0.01,False,synchronous,0.5670944144699118,0.21903026506627213,4,0,1
control,0.01,False,asynchronous,0.5946217504850162,0.14941083884480355,4,0,1
control,0.01,False,synchronous,0.5082644872099275,0.12740228790427158,4,0,1
control,0.01,True,asynchronous,0.5828023895525254,0.2499437215045472,4,0,1
control,0.01,True,asynchronous,0.4232847850667548,0.13812211162201704,4,0,1
control,0.01,True,asynchronous,0.5988816173454157,0.1714470610678292,4,0,1
control,0.01,False,asynchronous,0.4752043234425403,0.3351817429642432,4,0,1
control,0.01,True,asynchronous,0.4781525544317993,0.13646536642857576,4,0,1
control,0.01,False,asynchronous,0.5752585170442396,0.28077164703320734,4,0,1
control,0.01,True,asynchronous,0.43594527434940245,0.2600443141402493,4,0,1
control,0.01,True,asynchronous,0.4121343397326859,0.3302868915626157,4,0,1
control,0.01,False,asynchronous,0.5633648095699277,0.2735090831758265,4,0,1
control,0.01,False,asynchronous,0.5073316941838253,0.38226445857692426,4,0,1
control,0.01,False,asynchronous,0.3513044811775062,0.11845760735254572,4,0,1
control,0.01,False,synchronous,0.6918482942037746,0.27027405846619207,4,0,1
control,0.01,False,asynchronous,0.4262625564260108,0.19768336042444468,4,0,1
control,0.01,False,asynchronous,0.6051011329108561,0.16525302679303194,4,0,1
control,0.01,True,asynchronous,0.3155094293446491,0.2589525638063048,4,0,1
control,0.01,True,asynchronous,0.5348865362967151,0.16720468201988967,4,0,1
control,0.01,False,asynchronous,0.4347155263835626,0.13819965392258057,4,0,1
control,0.01,False,asynchronous,0.4639822491095419,0.2058039066721217,4,0,1
control,0.01,True,asynchronous,0.46736547398664063,0.20309121732574417,4,0,1
control,0.01,False,asynchronous,0.5404770824180418,0.0,4,0,1
control,0.01,False,asynchronous,0.5075162904072946,0.18619710901053058,4,0,1
control,0.01,False,asynchronous,0.5532381121828532,0.027614316421168184,4,0,1
control,0.01,True,asynchronous,0.5143979559985614,0.3725345328194959,4,0,1
control,0.01,True,asynchronous,0.7135973248723592,0.18912413446470352,4,0,1
control,0.01,True,asynchronous,0.7478568704527576,0.29455400223465367,4,0,1
control,0.01,False,asynchronous,0.5788815844200665,0.2845068504867948,4,0,1
control,0.01,False,synchronous,0.5420540901417495,0.23122283072231575,4,0,1
control,0.01,False,asynchronous,0.5320388366660741,0.3057663030994949,4,0,1
control,0.01,True,asynchronous,0.3354865445165345,0.34977926461203956,4,0,1
control,0.01,True,synchronous,0.7135678452160948,0.23617326987441045,4,0,1
control,0.01,False,asynchronous,0.5742136425203948,0.3025994730277305,4,0,1
exteroceptive,0.01,False,asynchronous,0.5963130739259732,0.1080711654252997,4,0,1
exteroceptive,0.01,True,asynchronous,0.4891623511810221,0.06715798283377841,4,0,1
exteroceptive,0.01,False,synchronous,0.5601604233661238,0.3632926488956504,4,0,1
exteroceptive,0.01,False,asynchronous,0.4716732802746945,0.29615621824319477,4,0,1
exteroceptive,0.01,True,asynchronous,0.4271913351514537,0.17744072974647382,4,0,1
exteroceptive,0.01,False,asynchronous,0.6083529345088412,0.09475832877557204,4,0,1
exteroceptive,0.01,True,asynchronous,0.4611346016772942,0.13864825727127122,4,0,1
exteroceptive,0.01,False,asynchronous,0.5393358235543454,0.09137728820365303,4,0,1
exteroceptive,0.01,False,synchronous,0.360276068618567,0.1503967401204658,4,0,1
exteroceptive,0.01,False,asynchronous,0.4519961410630239,0.09448252372491733,4,0,1
exteroceptive,0.01,True,synchronous,0.3524333750410345,0.031273474917156124,4,0,1
exteroceptive,0.01,True,asynchronous,0.4810254324955886,0.16588373563950615,4,0,1
exteroceptive,0.01,True,asynchronous,0.4460153179172838,0.06847222260424625,4,0,1
exteroceptive,0.01,True,asynchronous,0.6181734112669096,0.31483013925917547,4,0,1
exteroceptive,0.01,False,asynchronous,0.548724181880369,0.0,4,0,1
exteroceptive,0.01,True,asynchronous,0.5470115465449207,0.01672406661417819,4,0,1
exteroceptive,0.01,False,asynchronous,0.4890566796987981,0.3519232330080028,4,0,1
exteroceptive,0.01,True,asynchronous,0.491390756338056,0.08495806461581444,4,0,1
exteroceptive,0.01,False,asynchronous,0.7067477708593026,0.10226996914900865,4,0,1
exteroceptive,0.01,True,asynchronous,0.7005190710707699,0.12312824869708527,4,0,1
exteroceptive,0.01,True,asynchronous,0.3476783670208821,0.1509169428662746,4,0,1
exteroceptive,0.01,False,asynchronous,0.3798302248835283,0.18370108837839028,4,0,1
exteroceptive,0.01,True,synchronous,0.2868595466686255,0.3219163985292795,4,0,1
exteroceptive,0.01,True,asynchronous,0.3540818670671452,0.11416095536750154,4,0,1
exteroceptive,0.01,True,asynchronous,0.5525249601938782,0.19920975559948018,4,0,1
exteroceptive,0.01,False,asynchronous,0.6979421098713806,0.09116280509561411,4,0,1
exteroceptive,0.01,True,asynchronous,0.530674509400308,0.15182550739341624,4,0,1
exteroceptive,0.01,True,asynchronous,0.5217476615212542,0.2564175301786614,4,0,1
exteroceptive,0.01,False,asynchronous,0.4165225970748325,0.09153499061136967,4,0,1
exteroceptive,0.01,False,asynchronous,0.5128092879655225,0.39383822717685113,4,0,1
exteroceptive,0.01,True,asynchronous,0.4311706875951186,0.11902586963885106,4,0,1
exteroceptive,0.01,True,asynchronous,0.42562132954888215,0.2932239011761355,4,0,1
exteroceptive,0.01,True,asynchronous,0.45089107264261363,0.20125369811031274,4,0,1
exteroceptive,0.01,False,asynchronous,0.5592989904520687,0.15922006225275337,4,0,1
exteroceptive,0.01,False,asynchronous,0.7116369669867777,0.05988269498461206,4,0,1
exteroceptive,0.01,True,asynchronous,0.4390876314460498,0.0,4,0,1
exteroceptive,0.01,False,asynchronous,0.577103960816117,0.2251509640208882,4,0,1
exteroceptive,0.01,True,asynchronous,0.5787895384596562,0.17894119173283202,4,0,1
exteroceptive,0.01,False,asynchronous,0.4587343389968423,0.0,4,0,1
exteroceptive,0.01,False,synchronous,0.5486178675016646,0.2674376745803397,4,0,1
exteroceptive,0.01,True,asynchronous,0.4441818918763765,0.20194217077231352,4,0,1
exteroceptive,0.01,True,synchronous,0.5959270476488532,0.3054530359632163,4,0,1
exteroceptive,0.01,False,asynchronous,0.33398384219018384,0.17600396775672014,4,0,1
exteroceptive,0.01,False,asynchronous,0.5149876005079975,0.088881915832726,4,0,1
exteroceptive,0.01,True,synchronous,0.5023826571642189,0.13988497487137969,4,0,1
exteroceptive,0.01,False,asynchronous,0.4981639417141975,0.22963930173920027,4,0,1
exteroceptive,0.01,False,asynchronous,0.2788977430413772,0.09125937867347533,4,0,1
exteroceptive,0.01,False,asynchronous,0.5608981198110752,0.2735282644779038,4,0,1
exteroceptive,0.01,False,asynchronous,0.6568010251695523,0.0,4,0,1
exteroceptive,0.01,True,asynchronous,0.45656623169792615,0.096107829252068,4,0,1
interoceptive,0.01,False,asynchronous,0.4308858251094122,0.0,5,0,1
interoceptive,0.01,False,asynchronous,0.6225998014566304,0.0,5,0,1
interoceptive,0.01,True,asynchronous,0.6664069998051397,0.16370884820968346,5,0,1
interoceptive,0.01,True,asynchronous,0.5261492524077236,0.07370496482464159,5,0,1
interoceptive,0.01,False,asynchronous,0.64691854654799,0.0994533986953063,5,0,1
interoceptive,0.01,True,asynchronous,0.49885927807755287,0.018633831145814808,5,0,1
interoceptive,0.01,True,asynchronous,0.4686486046028331,0.009720523630141066,5,0,1
interoceptive,0.01,True,asynchronous,0.46447693737365964,0.1097549589906694,5,0,1
interoceptive,0.01,True,asynchronous,0.5127373696831999,0.0,5,0,1
interoceptive,0.01,False,asynchronous,0.6034067390196493,0.1985248980699043,5,0,1
interoceptive,0.01,True,asynchronous,0.43971400637456104,0.12856394374175262,5,0,1
interoceptive,0.01,False,asynchronous,0.43062887972335606,0.0,5,0,1
interoceptive,0.01,True,asynchronous,0.5386829704192144,0.05175802050831953,5,0,1
interoceptive,0.01,True,asynchronous,0.5004199524719969,0.09071985720130289,5,0,1
interoceptive,0.01,False,asynchronous,0.5963839946359308,0.09222409929651357,5,0,1
interoceptive,0.01,False,asynchronous,0.4637207545411556,0.12599850530202,5,0,1
interoceptive,0.01,False,asynchronous,0.6360931547438596,0.12673920925190035,5,0,1
interoceptive,0.01,False,asynchronous,0.52279880362998,0.0,5,0,1
interoceptive,0.01,False,asynchronous,0.4018223121993724,0.17290764625074345,5,0,1
interoceptive,0.01,True,asynchronous,0.8112569683675013,0.17471876862474145,5,0,1
interoceptive,0.01,True,asynchronous,0.44592432838800483,0.02435836534141629,5,0,1
interoceptive,0.01,True,synchronous,0.41288037085379437,0.05591793623014299,5,0,1
interoceptive,0.01,True,asynchronous,0.5775765060262251,0.12920539652240726,5,0,1
interoceptive,0.01,True,asynchronous,0.34874679967343436,0.22726679289906587,5,0,1
interoceptive,0.01,True,asynchronous,0.41427467300935694,0.056995420094996564,5,0,1
interoceptive,0.01,False,asynchronous,0.4250152932424058,0.0,5,0,1
interoceptive,0.01,False,asynchronous,0.5045711529093571,0.1142841271240344,5,0,1
interoceptive,0.01,True,synchronous,0.3943785818723097,0.2507834331874785,5,0,1
interoceptive,0.01,True,synchronous,0.5731514864185784,0.13636591558273692,5,0,1
interoceptive,0.01,True,synchronous,0.3384287755458806,0.17071867306139749,5,0,1
interoceptive,0.01,True,asynchronous,0.5430450087468145,0.04922084978489606,5,0,1
interoceptive,0.01,True,asynchronous,0.5783376811620831,0.09149070577424068,5,0,1
interoceptive,0.01,False,asynchronous,0.45953634258656567,0.0037275732748692503,5,0,1
interoceptive,0.01,False,asynchronous,0.4592804850647643,0.15229753545197006,5,0,1
interoceptive,0.01,False,asynchronous,0.5654069214544799,0.0,5,0,1
interoceptive,0.01,False,asynchronous,0.39375909337845993,0.0,5,0,1
interoceptive,0.01,False,asynchronous,0.4559475408816773,0.11207953975706013,5,0,1
interoceptive,0.01,False,asynchronous,0.6242520792113876,0.09114796751601874,5,0,1
interoceptive,0.01,False,asynchronous,0.6057523435306502,0.09606078487401062,5,0,1
interoceptive,0.01,True,asynchronous,0.39760424946637124,0.0,5,0,1
interoceptive,0.01,True,asynchronous,0.46285317689502653,0.1243947641113206,5,0,1
interoceptive,0.01,True,asynchronous,0.3916686935467159,0.21214494036247317,5,0,1
interoceptive,0.01,False,asynchronous,0.5822222330508857,0.0,5,0,1
interoceptive,0.01,True,asynchronous,0.42297087935290817,0.0,5,0,1
interoceptive,0.01,False,asynchronous,0.5292975446370918,0.0,5,0,1
interoceptive,0.01,True,synchronous,0.6127630374049718,0.1563226181109582,5,0,1
interoceptive,0.01,True,asynchronous,0.5304826114504425,0.036915588047396405,5,0,1
interoceptive,0.01,True,asynchronous,0.44614073408513133,0.0808637251351412,5,0,1
interoceptive,0.01,True,asynchronous,0.6053106891179589,0.0,5,0,1
interoceptive,0.01,True,asynchronous,0.528117967711882,0.04273858769984763,5,0,1
control,0.01,False,asynchronous,0.4545930754718946,0.2042233721096244,5,0,1
control,0.01,True,asynchronous,0.3850998064691488,0.04329227788275186,5,0,1
control,0.01,True,synchronous,0.4777815016769569,0.30057419826979337,5,0,1
control,0.01,True,synchronous,0.5214415333578701,0.20367700339851338,5,0,1
control,0.01,False,asynchronous,0.5967783551706319,0.3101910781977178,5,0,1
control,0.01,False,asynchronous,0.22715562800581396,0.31752935798375276,5,0,1
control,0.01,False,asynchronous,0.6110153758285259,0.23135317901584695,5,0,1
control,0.01,False,asynchronous,0.739877730669006,0.09822448234093784,5,0,1
control,0.01,False,asynchronous,0.6343115505672932,0.1389679622875033,5,0,1
control,0.01,False,synchronous,0.5390701262894966,0.17785235422699525,5,0,1
control,0.01,False,asynchronous,0.5845211642482712,0.33991941584614516,5,0,1
control,0.01,False,asynchronous,0.4608405637982078,0.2185118978096808,5,0,1
control,0.01,False,asynchronous,0.5831187397163169,0.35717611155178397,5,0,1
control,0.01,True,asynchronous,0.4798725931494662,0.12824363159898755,5,0,1
control,0.01,True,asynchronous,0.6392951493449115,0.16096075674670296,5,0,1
control,0.01,True,asynchronous,0.504001856176339,0.18978447176025748,5,0,1
control,0.01,True,asynchronous,0.5757194513142259,0.462806624097067,5,0,1
control,0.01,True,asynchronous,0.5408886045282568,0.22709854302217217,5,0,1
control,0.01,True,asynchronous,0.4893718060147873,0.24300822896382496,5,0,1
control,0.01,False,asynchronous,0.5378304651591127,0.23725559374499414,5,0,1
control,0.01,True,synchronous,0.45346389596278247,0.16895179668555638,5,0,1
control,0.01,False,asynchronous,0.46110705134225805,0.11297115930217733,5,0,1
control,0.01,True,asynchronous,0.5987057660037074,0.1761442208595627,5,0,1
control,0.01,False,synchronous,0.54863141520248,0.3014949096795813,5,0,1
control,0.01,True,asynchronous,0.7210109925473581,0.26618427401854,5,0,1
control,0.01,True,synchronous,0.5734490472399795,0.3278478119164811,5,0,1
control,0.01,True,asynchronous,0.48954879539084034,0.2784954420619544,5,0,1
control,0.01,False,asynchronous,0.490162527644317,0.11971151074644931,5,0,1
control,0.01,False,asynchronous,0.45142033891028066,0.3616293059919171,5,0,1
control,0.01,True,asynchronous,0.3785019087740463,0.29268337582598314,5,0,1
control,0.01,True,asynchronous,0.5549686883782705,0.15307978174663017,5,0,1
control,0.01,True,asynchronous,0.6304679014719098,0.0010424037608205983,5,0,1
control,0.01,False,asynchronous,0.6287526858821361,0.26111308335518835,5,0,1
control,0.01,True,asynchronous,0.5963524409796763,0.3005966822126105,5,0,1
control,0.01,False,asynchronous,0.46704672545429204,0.3245083083419844,5,0,1
control,0.01,False,asynchronous,0.5554645232454388,0.0,5,0,1
control,0.01,True,synchronous,0.5718121289542938,0.16185855387660178,5,0,1
control,0.01,True,asynchronous,0.48670734189610765,0.06599268963496588,5,0,1
control,0.01,True,asynchronous,0.42694626740899455,0.3342765757848097,5,0,1
control,0.01,True,asynchronous,0.4765694292778209,0.07622987682542232,5,0,1
control,0.01,True,synchronous,0.3541163161148404,0.4732993994695205,5,0,1
control,0.01,False,asynchronous,0.4917331584258533,0.16455056033995383,5,0,1
control,0.01,True,asynchronous,0.4798772511070991,0.2413409398602583,5,0,1
control,0.01,True,asynchronous,0.7382802221881202,0.29450262050589454,5,0,1
control,0.01,True,asynchronous,0.471958480160987,0.31405590205725087,5,0,1
control,0.01,False,synchronous,0.5466678002514658,0.2172352834264457,5,0,1
control,0.01,True,synchronous,0.4773200307227084,0.1884318247215389,5,0,1
control,0.01,False,asynchronous,0.4832981087944449,0.3196712898567951,5,0,1
control,0.01,True,synchronous,0.4454932045580934,0.37321063800830134,5,0,1
control,0.01,False,synchronous,0.6283857085772917,0.3718047173148822,5,0,1
exteroceptive,0.01,False,asynchronous,0.4454020061784698,0.21836928833924246,5,0,1
exteroceptive,0.01,False,synchronous,0.5149201033897293,0.1323973887555311,5,0,1
exteroceptive,0.01,False,asynchronous,0.4498179571745315,0.002731736984492472,5,0,1
exteroceptive,0.01,False,asynchronous,0.4220994400140854,0.023799736076013017,5,0,1
exteroceptive,0.01,True,asynchronous,0.34002598549532775,0.22902432402416917,5,0,1
exteroceptive,0.01,False,asynchronous,0.4398339626652602,0.1269062516826194,5,0,1
exteroceptive,0.01,True,asynchronous,0.43885907797099083,0.16249733956984702,5,0,1
exteroceptive,0.01,True,asynchronous,0.5614154451991221,0.03743069733520321,5,0,1
exteroceptive,0.01,True,asynchronous,0.48739151586941454,0.0,5,0,1
exteroceptive,0.01,True,asynchronous,0.6465158754711202,0.16570542646145986,5,0,1
exteroceptive,0.01,True,asynchronous,0.43431317831726507,0.2638923884338479,5,0,1
exteroceptive,0.01,True,asynchronous,0.4704965090455591,0.1200635891480448,5,0,1
exteroceptive,0.01,False,asynchronous,0.4450098705387899,0.38895613916343685,5,0,1
exteroceptive,0.01,True,asynchronous,0.3197076478626874,0.09214739123488089,5,0,1
exteroceptive,0.01,False,synchronous,0.5409656380250963,0.33633814995704137,5,0,1
exteroceptive,0.01,True,asynchronous,0.6630784363081121,0.16645142539955987,5,0,1
exteroceptive,0.01,False,asynchronous,0.4136540884168864,0.0,5,0,1
exteroceptive,0.01,False,synchronous,0.5864177798016692,0.18181633349646817,5,0,1
exteroceptive,0.01,True,asynchronous,0.49159076136185875,0.1278463400749878,5,0,1
exteroceptive,0.01,True,asynchronous,0.5147173816415622,0.09918230017719222,5,0,1
exteroceptive,0.01,False,asynchronous,0.47652899273974636,0.24829558771787702,5,0,1
exteroceptive,0.01,False,asynchronous,0.35546393824683303,0.0030511684040779308,5,0,1
exteroceptive,0.01,True,asynchronous,0.528299382552881,0.15699399927364274,5,0,1
exteroceptive,0.01,True,asynchronous,0.43113545924347885,0.1619204519666926,5,0,1
exteroceptive,0.01,False,asynchronous,0.5696040809175182,0.11291061213010548,5,0,1
exteroceptive,0.01,False,asynchronous,0.5365908447251238,0.15928645222817006,5,0,1
exteroceptive,0.01,False,asynchronous,0.4718165217049475,0.23299241002356963,5,0,1
exteroceptive,0.01,True,asynchronous,0.5590866501262155,0.3331143518736712,5,0,1
exteroceptive,0.01,False,asynchronous,0.6578233284378118,0.3840313859577135,5,0,1
exteroceptive,0.01,True,asynchronous,0.39770894329661116,0.3148145107962548,5,0,1
exteroceptive,0.01,False,asynchronous,0.534126128035106,0.150122921358521,5,0,1
exteroceptive,0.01,False,asynchronous,0.5971849220402202,0.20764365207218696,5,0,1
exteroceptive,0.01,False,asynchronous,0.5471318011096341,0.16840079390691676,5,0,1
exteroceptive,0.01,True,synchronous,0.4861153442093787,0.2433232538497283,5,0,1
exteroceptive,0.01,True,asynchronous,0.6384601160014937,0.10881809934990605,5,0,1
exteroceptive,0.01,True,asynchronous,0.3171837525253743,0.1698384935978958,5,0,1
exteroceptive,0.01,False,asynchronous,0.5241073602095587,0.2317515005112265,5,0,1
exteroceptive,0.01,True,asynchronous,0.5323358312487924,0.1575779840229514,5,0,1
exteroceptive,0.01,False,synchronous,0.7234772599055274,0.10171644075850483,5,0,1
exteroceptive,0.01,False,asynchronous,0.6318518190202741,0.058578550233926496,5,0,1
exteroceptive,0.01,True,asynchronous,0.4103893033151691,0.14228218632749665,5,0,1
exteroceptive,0.01,True,synchronous,0.503883276430198,0.16929115930200941,5,0,1
exteroceptive,0.01,False,asynchronous,0.6452218179693656,0.1375182146506855,5,0,1
exteroceptive,0.01,True,asynchronous,0.6155099513149385,0.23794653723558407,5,0,1
exteroceptive,0.01,True,asynchronous,0.4361027238061409,0.12784121404102722,5,0,1
exteroceptive,0.01,False,asynchronous,0.31757695765473415,0.0,5,0,1
exteroceptive,0.01,True,asynchronous,0.46371209907647676,0.03772703578694919,5,0,1
exteroceptive,0.01,True,asynchronous,0.6036604322819006,0.14294450826005056,5,0,1
exteroceptive,0.01,False,asynchronous,0.609782716935802,0.16288228902152144,5,0,1
exteroceptive,0.01,False,asynchronous,0.45681004273689774,0.2360938610872283,5,0,1
control,0.01,True,asynchronous,0.5202253724505276,0.14713314222781032,6,0,1
control,0.01,True,synchronous,0.4092273467412676,0.2229926403469037,6,0,1
control,0.01,False,asynchronous,0.5857900317906769,0.20369484060597798,6,0,1
control,0.01,True,synchronous,0.44564523242430903,0.3571003121946382,6,0,1
control,0.01,False,synchronous,0.44521213146802696,0.27502522522439,6,0,1
control,0.01,True,asynchronous,0.3533600840478534,0.3930032458647427,6,0,1
control,0.01,False,asynchronous,0.4448956467761764,0.3034251021060287,6,0,1
control,0.01,False,asynchronous,0.4218680678103593,0.16717583445990683,6,0,1
control,0.01,False,synchronous,0.4366589636126139,0.19653818466267714,6,0,1
control,0.01,False,asynchronous,0.5285964384542612,0.29836777461043884,6,0,1
control,0.01,True,synchronous,0.4395696651968769,0.21151616215996225,6,0,1
control,0.01,False,synchronous,0.6031222534217514,0.3974571005433943,6,0,1
control,0.01,False,asynchronous,0.28669065610548683,0.43400056289265426,6,0,1
control,0.01,False,synchronous,0.4794639755961297,0.35270456014184315,6,0,1
control,0.01,True,asynchronous,0.3970398438439987,0.5464298600892901,6,0,1
control,0.01,True,synchronous,0.3911975370577629,0.27390413756436904,6,0,1
control,0.01,True,asynchronous,0.5311524486578706,0.29667712068190655,6,0,1
control,0.01,False,synchronous,0.3172560112588423,0.1029099364647452,6,0,1
control,0.01,False,asynchronous,0.523683250822405,0.18682513275751877,6,0,1
control,0.01,False,asynchronous,0.49993639907987736,0.2568266205317653,6,0,1
control,0.01,True,synchronous,0.5325469495863784,0.31780108110368094,6,0,1
control,0.01,True,asynchronous,0.44622839843495093,0.142428223209414,6,0,1
control,0.01,True,asynchronous,0.44524799942422555,0.0977975390163342,6,0,1
control,0.01,False,asynchronous,0.4397519910864977,0.21061039795889883,6,0,1
control,0.01,False,synchronous,0.4353375378473711,0.37566814512087465,6,0,1
control,0.01,False,synchronous,0.3905629552833961,0.29589784895228677,6,0,1
control,0.01,True,asynchronous,0.6114802009881148,0.2583529862703388,6,0,1
control,0.01,True,asynchronous,0.41995308626239003,0.2745260398686999,6,0,1
control,0.01,True,asynchronous,0.59606329749842,0.24477508503576273,6,0,1
control,0.01,True,asynchronous,0.5075937640131715,0.30493819270024713,6,0,1
control,0.01,False,asynchronous,0.4537666648631781,0.2009427480840419,6,0,1
control,0.01,True,asynchronous,0.5509929017945228,0.44231499573298244,6,0,1
control,0.01,True,asynchronous,0.6334137040467194,0.25383404241742896,6,0,1
control,0.01,True,asynchronous,0.46836370040765907,0.2717860819743168,6,0,1
control,0.01,False,asynchronous,0.38807761043684075,0.3597665120541127,6,0,1
control,0.01,True,asynchronous,0.4602540187531664,0.3518989572945014,6,0,1
control,0.01,True,asynchronous,0.4309919303603269,0.12674810223180036,6,0,1
control,0.01,True,asynchronous,0.45064063752824024,0.17990740683242334,6,0,1
control,0.01,False,asynchronous,0.4308600944461596,0.4011175096025675,6,0,1
control,0.01,True,asynchronous,0.5026009022198982,0.0,6,0,1
control,0.01,True,asynchronous,0.5198405648826866,0.2108499981388567,6,0,1
control,0.01,False,asynchronous,0.5152825942738449,0.1277310391047793,6,0,1
control,0.01,True,asynchronous,0.433044304438172,0.32617345776175644,6,0,1
control,0.01,False,asynchronous,0.5563299295964327,0.12625113600498067,6,0,1
control,0.01,False,asynchronous,0.4371021615340755,0.21897222390186682,6,0,1
control,0.01,False,asynchronous,0.4484840869528206,0.18479471376289652,6,0,1
control,0.01,True,synchronous,0.4006356922903329,0.1873865029759874,6,0,1
control,0.01,False,asynchronous,0.2703892689071112,0.38925170845195456,6,0,1
control,0.01,True,synchronous,0.527351167604958,0.2767689850005624,6,0,1
control,0.01,False,asynchronous,0.5130327376557738,0.14383100502586857,6,0,1
exteroceptive,0.01,True,asynchronous,0.5499722444702482,0.15254995276243963,6,0,1
exteroceptive,0.01,True,synchronous,0.495481318639265,0.3171044558032611,6,0,1
exteroceptive,0.01,True,synchronous,0.517867578138466,0.38846972106637156,6,0,1
exteroceptive,0.01,False,asynchronous,0.6613887927257319,0.13643365049369804,6,0,1
exteroceptive,0.01,False,asynchronous,0.5929957229959957,0.12958297897986382,6,0,1
exteroceptive,0.01,True,asynchronous,0.4916811476259719,0.28281852701765087,6,0,1
exteroceptive,0.01,False,asynchronous,0.6326346349170725,0.036552185525471736,6,0,1
exteroceptive,0.01,True,synchronous,0.6133027641640875,0.4747735190429815,6,0,1
exteroceptive,0.01,False,asynchronous,0.5626590645725191,0.20796160061360314,6,0,1
exteroceptive,0.01,False,asynchronous,0.6435777755426418,0.2593615903588917,6,0,1
exteroceptive,0.01,True,asynchronous,0.41910812412469334,0.15198603612301695,6,0,1
exteroceptive,0.01,False,asynchronous,0.4519238120418965,0.1712536210942125,6,0,1
exteroceptive,0.01,False,asynchronous,0.5271636955462783,0.15589500776632614,6,0,1
exteroceptive,0.01,False,asynchronous,0.6218941680295823,0.2852050631957967,6,0,1
exteroceptive,0.01,False,asynchronous,0.5053065517609971,0.26813415143112207,6,0,1
exteroceptive,0.01,True,asynchronous,0.5489461487247607,0.06325319417502616,6,0,1
exteroceptive,0.01,True,asynchronous,0.3675090529766468,0.12284020271366869,6,0,1
exteroceptive,0.01,True,asynchronous,0.5360797531843968,0.15647716573263704,6,0,1
exteroceptive,0.01,False,asynchronous,0.49169461893593874,0.011437150139632313,6,0,1
exteroceptive,0.01,True,asynchronous,0.652586305128106,0.025185783958977193,6,0,1
exteroceptive,0.01,False,synchronous,0.4769319736753409,0.23960104722653844,6,0,1
exteroceptive,0.01,False,asynchronous,0.4671556617122358,0.12695629857616172,6,0,1
exteroceptive,0.01,False,asynchronous,0.3626380722282055,0.1715297518780438,6,0,1
exteroceptive,0.01,False,asynchronous,0.5994035043437382,0.019256071962733268,6,0,1
exteroceptive,0.01,True,synchronous,0.4446906799169889,0.17835966619871058,6,0,1
exteroceptive,0.01,True,asynchronous,0.4611385685879864,0.14366986304875248,6,0,1
exteroceptive,0.01,False,asynchronous,0.6373866714982945,0.1558999568283151,6,0,1
exteroceptive,0.01,False,synchronous,0.5113138772064236,0.2521609907002814,6,0,1
exteroceptive,0.01,False,asynchronous,0.44254640638441545,0.09072736895175172,6,0,1
exteroceptive,0.01,False,asynchronous,0.5119588400079075,0.09792454034429494,6,0,1
exteroceptive,0.01,False,asynchronous,0.39403015989350615,0.12610133332353232,6,0,1
exteroceptive,0.01,True,asynchronous,0.4501760477542093,0.14894446522786697,6,0,1
exteroceptive,0.01,False,asynchronous,0.5028664028632805,0.1541664155130178,6,0,1
exteroceptive,0.01,True,asynchronous,0.5833437803199841,0.11135890635952564,6,0,1
exteroceptive,0.01,True,asynchronous,0.5285096801683076,0.11747204195848798,6,0,1
exteroceptive,0.01,True,synchronous,0.5766827564213965,0.20111330626589466,6,0,1
exteroceptive,0.01,True,asynchronous,0.415659554753978,0.11442004506624606,6,0,1
exteroceptive,0.01,True,asynchronous,0.3206506432785563,0.04039584739845199,6,0,1
exteroceptive,0.01,False,asynchronous,0.3597230853533835,0.2350283797318382,6,0,1
exteroceptive,0.01,False,asynchronous,0.49067058132208774,0.19675602468195047,6,0,1
exteroceptive,0.01,False,asynchronous,0.4550613812531958,0.07416157270592792,6,0,1
exteroceptive,0.01,True,asynchronous,0.5234736500383788,0.1826245508381258,6,0,1
exteroceptive,0.01,True,synchronous,0.33892613796474674,0.32832693652482453,6,0,1
exteroceptive,0.01,True,asynchronous,0.45531893149872765,0.1266746078194257,6,0,1
exteroceptive,0.01,False,synchronous,0.4447789219969867,0.24397245683937635,6,0,1
exteroceptive,0.01,False,asynchronous,0.4857887394908994,0.1342901000315427,6,0,1
exteroceptive,0.01,False,asynchronous,0.5504732952732787,0.1362233806340994,6,0,1
exteroceptive,0.01,True,asynchronous,0.40193164996436875,0.27318211638173207,6,0,1
exteroceptive,0.01,True,asynchronous,0.6157944936407671,0.09295409006510855,6,0,1
exteroceptive,0.01,False,asynchronous,0.46762717962245853,0.13006143678045162,6,0,1
interoceptive,0.01,True,asynchronous,0.38374910528362416,0.1321787804189647,6,0,1
interoceptive,0.01,True,asynchronous,0.554629793038381,0.0,6,0,1
interoceptive,0.01,False,asynchronous,0.5732230670383331,0.0995768895660808,6,0,1
interoceptive,0.01,True,asynchronous,0.5983530947220692,0.020115091259823595,6,0,1
interoceptive,0.01,False,asynchronous,0.49524663586777506,0.0,6,0,1
interoceptive,0.01,True,asynchronous,0.7363619212128918,0.21461569931627095,6,0,1
interoceptive,0.01,False,asynchronous,0.5385140077151291,0.0,6,0,1
interoceptive,0.01,False,asynchronous,0.5965356493425858,0.004883637103551858,6,0,1
interoceptive,0.01,True,asynchronous,0.517393886666547,0.09882903756845042,6,0,1
interoceptive,0.01,True,asynchronous,0.491994886641766,0.12778298017102646,6,0,1
interoceptive,0.01,False,asynchronous,0.44559840050493377,0.0,6,0,1
interoceptive,0.01,True,asynchronous,0.5829306563320233,0.2609833295953487,6,0,1
interoceptive,0.01,True,synchronous,0.5104105796467953,0.3150914023936322,6,0,1
interoceptive,0.01,False,asynchronous,0.6340762575711599,0.020200115997056442,6,0,1
interoceptive,0.01,False,asynchronous,0.5104363347914177,0.10875632943249247,6,0,1
interoceptive,0.01,False,synchronous,0.6327546261217816,0.160004322125342,6,0,1
interoceptive,0.01,False,asynchronous,0.4281699692723898,0.0,6,0,1
interoceptive,0.01,False,asynchronous,0.5743724410534439,0.14431292494835912,6,0,1
interoceptive,0.01,False,asynchronous,0.5379958048821535,0.024784087141168656,6,0,1
interoceptive,0.01,False,asynchronous,0.5129240342595758,0.0,6,0,1
interoceptive,0.01,False,asynchronous,0.297244781709172,0.0702321210578227,6,0,1
interoceptive,0.01,True,asynchronous,0.49736060389387915,0.1143555468842217,6,0,1
interoceptive,0.01,True,asynchronous,0.4962627496799551,0.0,6,0,1
interoceptive,0.01,False,asynchronous,0.5348469156103541,0.05228225264396159,6,0,1
interoceptive,0.01,True,asynchronous,0.46544578308167045,0.0,6,0,1
interoceptive,0.01,True,asynchronous,0.5912625711615177,0.035906160592723446,6,0,1
interoceptive,0.01,True,asynchronous,0.40179967317210497,0.0,6,0,1
interoceptive,0.01,True,synchronous,0.4951073748186063,0.3250950665121979,6,0,1
interoceptive,0.01,True,asynchronous,0.44910020387470084,0.0,6,0,1
interoceptive,0.01,False,asynchronous,0.40065448149489075,0.0,6,0,1
interoceptive,0.01,False,asynchronous,0.531460182619763,0.0,6,0,1
interoceptive,0.01,True,synchronous,0.4490903332174895,0.1851467496125525,6,0,1
interoceptive,0.01,True,asynchronous,0.3035993866351802,0.07509648327001041,6,0,1
interoceptive,0.01,True,asynchronous,0.49386609885609556,0.1293177990642702,6,0,1
interoceptive,0.01,False,asynchronous,0.5203033051613165,0.0,6,0,1
interoceptive,0.01,False,asynchronous,0.5644969985332261,0.0,6,0,1
interoceptive,0.01,False,asynchronous,0.40323487600392116,0.039217161825585566,6,0,1
interoceptive,0.01,False,asynchronous,0.5274190625310823,0.13538717295684383,6,0,1
interoceptive,0.01,False,asynchronous,0.5036688021329879,0.0,6,0,1
interoceptive,0.01,True,asynchronous,0.5827877768563021,0.12013967159453594,6,0,1
interoceptive,0.01,False,synchronous,0.43442361819001307,0.144164861616789,6,0,1
interoceptive,0.01,False,asynchronous,0.48595681412741215,0.10138456731805036,6,0,1
interoceptive,0.01,True,asynchronous,0.5411206524047861,0.0314278766859971,6,0,1
interoceptive,0.01,True,asynchronous,0.5730105809902389,0.008076240032706877,6,0,1
interoceptive,0.01,False,synchronous,0.38351812370567806,0.12008773453086553,6,0,1
interoceptive,0.01,False,asynchronous,0.6289181341755745,0.0,6,0,1
interoceptive,0.01,True,asynchronous,0.6100402013836868,0.0,6,0,1
interoceptive,0.01,False,asynchronous,0.6479169048698017,0.0,6,0,1
interoceptive,0.01,False,asynchronous,0.543012430182718,0.23052088778471186,6,0,1
interoceptive,0.01,True,asynchronous,0.37706019048718575,0.019183162951359266,6,0,1
interoceptive,0.01,False,asynchronous,0.5124778283548873,0.20597828250598177,7,0,1
interoceptive,0.01,False,asynchronous,0.47074820116113403,0.03772795391574301,7,0,1
interoceptive,0.01,False,asynchronous,0.6166876224344666,0.08128212264555884,7,0,1
interoceptive,0.01,True,asynchronous,0.5863313600637124,0.0,7,0,1
interoceptive,0.01,False,asynchronous,0.3547998921914619,0.07286589446859888,7,0,1
interoceptive,0.01,True,asynchronous,0.4713620236187905,0.19525221913963198,7,0,1
interoceptive,0.01,False,asynchronous,0.4117619593662749,0.07441658045409612,7,0,1
interoceptive,0.01,False,asynchronous,0.4938704289672553,0.14607785546763075,7,0,1
interoceptive,0.01,False,asynchronous,0.49523634428781194,0.12920911994186154,7,0,1
interoceptive,0.01,False,asynchronous,0.4586558236297446,0.0,7,0,1
interoceptive,0.01,False,asynchronous,0.47713767834777104,0.0,7,0,1
interoceptive,0.01,True,asynchronous,0.5369952191912294,0.10423802467931742,7,0,1
interoceptive,0.01,True,asynchronous,0.5408765249174843,0.09522423920022062,7,0,1
interoceptive,0.01,True,asynchronous,0.4230698035480117,0.0,7,0,1
interoceptive,0.01,True,asynchronous,0.46690978392890686,0.013749555710072955,7,0,1
interoceptive,0.01,False,asynchronous,0.39252061529498866,0.05630715438495005,7,0,1
interoceptive,0.01,True,asynchronous,0.5912157729630022,0.12334204400020345,7,0,1
interoceptive,0.01,True,asynchronous,0.5807499599548988,0.10793241976884099,7,0,1
interoceptive,0.01,False,asynchronous,0.6507087341152313,0.12636462743030308,7,0,1
interoceptive,0.01,False,asynchronous,0.3483279913397127,0.01754722092980039,7,0,1
interoceptive,0.01,False,asynchronous,0.5812407685036485,0.0,7,0,1
interoceptive,0.01,True,asynchronous,0.4834340615121602,0.16338112328037674,7,0,1
interoceptive,0.01,True,synchronous,0.3911455481904662,0.08886439895689416,7,0,1
interoceptive,0.01,False,asynchronous,0.5632859171581094,0.0,7,0,1
interoceptive,0.01,False,asynchronous,0.452991183401838,0.08041627903809448,7,0,1
interoceptive,0.01,False,asynchronous,0.4502730315108087,0.03966737636279703,7,0,1
interoceptive,0.01,True,asynchronous,0.5248319212751354,0.12853419587077114,7,0,1
interoceptive,0.01,False,asynchronous,0.4366345650088958,0.0,7,0,1
interoceptive,0.01,True,asynchronous,0.45547139495575834,0.07767806315061172,7,0,1
interoceptive,0.01,False,asynchronous,0.4883417446142313,0.026131412745996452,7,0,1
interoceptive,0.01,True,asynchronous,0.5515700089131146,0.0,7,0,1
interoceptive,0.01,True,synchronous,0.5210157260509581,0.08117987150897688,7,0,1
interoceptive,0.01,False,asynchronous,0.39241096742296494,0.1570101474419623,7,0,1
interoceptive,0.01,True,asynchronous,0.3562294157564598,0.0,7,0,1
interoceptive,0.01,False,asynchronous,0.6953185966092496,0.04368438538079546,7,0,1
interoceptive,0.01,True,asynchronous,0.32974333528301186,0.00903620014973764,7,0,1
interoceptive,0.01,True,asynchronous,0.5126569201639414,0.1279223655812058,7,0,1
interoceptive,0.01,False,asynchronous,0.5687439800160466,0.23051758027750707,7,0,1
interoceptive,0.01,True,asynchronous,0.46387032403218764,0.13766782575933056,7,0,1
interoceptive,0.01,True,asynchronous,0.5823782923195467,0.12898788816659934,7,0,1
interoceptive,0.01,False,asynchronous,0.4657866229610196,0.0,7,0,1
interoceptive,0.01,True,asynchronous,0.5016281600965498,0.01287423469382256,7,0,1
interoceptive,0.01,True,asynchronous,0.5587701271746438,0.14324173035621993,7,0,1
interoceptive,0.01,True,asynchronous,0.5663356287983388,0.0,7,0,1
interoceptive,0.01,True,asynchronous,0.3931408220234135,0.17248869785081222,7,0,1
interoceptive,0.01,True,asynchronous,0.552481933773597,0.1513253978141917,7,0,1
interoceptive,0.01,False,asynchronous,0.5120338983785186,0.12465624186314728,7,0,1
interoceptive,0.01,True,asynchronous,0.4781475065100088,0.0,7,0,1
interoceptive,0.01,True,asynchronous,0.5688163415735699,0.15122404316644128,7,0,1
interoceptive,0.01,False,synchronous,0.4333875692074083,0.07468025104514363,7,0,1
control,0.01,False,synchronous,0.4541533837308101,0.2898037376807766,7,0,1
control,0.01,False,synchronous,0.5682532624251967,0.4815361455732856,7,0,1
control,0.01,False,asynchronous,0.47897278875619853,0.21975220054643477,7,0,1
control,0.01,True,asynchronous,0.5163281420018977,0.1944405136280624,7,0,1
control,0.01,True,asynchronous,0.6428253320845687,0.3059538237506988,7,0,1
control,0.01,False,asynchronous,0.5383153406251723,0.2723640316757794,7,0,1
control,0.01,True,asynchronous,0.4760835756436126,0.3496909059476873,7,0,1
control,0.01,True,asynchronous,0.5287180865944648,0.3653164937787348,7,0,1
control,0.01,False,synchronous,0.5027634703133941,0.1814231258898239,7,0,1
control,0.01,True,asynchronous,0.4101511301794182,0.20714736206126172,7,0,1
control,0.01,True,asynchronous,0.5347567856404223,0.23625465648300867,7,0,1
control,0.01,True,asynchronous,0.4798522401640742,0.16523555989270666,7,0,1
control,0.01,True,asynchronous,0.4404282454015399,0.23251796739528172,7,0,1
control,0.01,True,asynchronous,0.5221905405921251,0.3579214205756379,7,0,1
control,0.01,False,asynchronous,0.5673768143082545,0.24594203123264016,7,0,1
control,0.01,True,synchronous,0.6045921079772548,0.3865938332190523,7,0,1
control,0.01,False,asynchronous,0.4297220353068726,0.24990773541680208,7,0,1
control,0.01,False,synchronous,0.45492275327931814,0.20787885034963766,7,0,1
control,0.01,False,asynchronous,0.597040541124124,0.14219956748226714,7,0,1
control,0.01,False,synchronous,0.3884535948745963,0.23890923535145966,7,0,1
control,0.01,False,asynchronous,0.5245506946160492,0.3136311812727982,7,0,1
control,0.01,False,asynchronous,0.5066770396208755,0.12559220545819433,7,0,1
control,0.01,False,synchronous,0.5030443882611084,0.38646271449460157,7,0,1
control,0.01,True,synchronous,0.42661894148333956,0.23476687412127806,7,0,1
control,0.01,True,asynchronous,0.5955848878733011,0.2132585181170618,7,0,1
control,0.01,True,asynchronous,0.38706967880215437,0.09880222094482999,7,0,1
control,0.01,True,synchronous,0.45591902424771685,0.17776168201766385,7,0,1
control,0.01,True,asynchronous,0.6271082314715654,0.1859485587336988,7,0,1
control,0.01,False,synchronous,0.4260473631584064,0.28230868258942554,7,0,1
control,0.01,False,asynchronous,0.5934256058225462,0.1830208020696551,7,0,1
control,0.01,True,synchronous,0.509096758473268,0.2381466138385466,7,0,1
control,0.01,False,asynchronous,0.6544922748668942,0.3542071751405433,7,0,1
control,0.01,False,asynchronous,0.522006283804023,0.03675697195046532,7,0,1
control,0.01,True,asynchronous,0.6165046333879416,0.1477498312765293,7,0,1
control,0.01,False,asynchronous,0.31233860271657643,0.16296123573796856,7,0,1
control,0.01,False,synchronous,0.46402646222344907,0.3116954689766994,7,0,1
control,0.01,False,synchronous,0.3970146755321268,0.2906610995164586,7,0,1
control,0.01,True,synchronous,0.3158576293183516,0.33736548463059546,7,0,1
control,0.01,True,asynchronous,0.37095230583662725,0.2407070390748998,7,0,1
control,0.01,True,asynchronous,0.5335247589618739,0.13214775071511065,7,0,1
control,0.01,False,asynchronous,0.5286210528991073,0.13802086973404154,7,0,1
control,0.01,True,asynchronous,0.30291948035689226,0.1821158918529298,7,0,1
control,0.01,True,asynchronous,0.6260816998920421,0.20907978703797603,7,0,1
control,0.01,False,asynchronous,0.49192195483764006,0.32513983931017426,7,0,1
control,0.01,False,asynchronous,0.6678001221046853,0.3641026223615815,7,0,1
control,0.01,True,asynchronous,0.6280547980863921,0.29912722226937455,7,0,1
control,0.01,True,asynchronous,0.3040049820187658,0.3121516878273003,7,0,1
control,0.01,True,asynchronous,0.5109358055262049,0.16413553085089316,7,0,1
control,0.01,False,asynchronous,0.4415574948013436,0.19278968724886292,7,0,1
control,0.01,True,asynchronous,0.49593052375368507,0.06422555907336752,7,0,1
exteroceptive,0.01,False,asynchronous,0.31731174777371574,0.1218967163150809,7,0,1
exteroceptive,0.01,True,synchronous,0.6638654721910244,0.3729740273176863,7,0,1
exteroceptive,0.01,True,asynchronous,0.5759575574310466,0.2868522889645526,7,0,1
exteroceptive,0.01,False,asynchronous,0.6412908339410609,0.024947498094023385,7,0,1
exteroceptive,0.01,True,asynchronous,0.5763702292282303,0.26546216592490895,7,0,1
exteroceptive,0.01,True,asynchronous,0.36382114563072326,0.10481842801528388,7,0,1
exteroceptive,0.01,False,asynchronous,0.41969024706632135,0.13211143029396658,7,0,1
exteroceptive,0.01,False,synchronous,0.5356598236718259,0.27842093493149206,7,0,1
exteroceptive,0.01,True,asynchronous,0.6185686409311838,0.03545105798931017,7,0,1
exteroceptive,0.01,False,asynchronous,0.5077382252626633,0.16790061322472,7,0,1
exteroceptive,0.01,True,asynchronous,0.47752457532366654,0.12473897169628995,7,0,1
exteroceptive,0.01,False,synchronous,0.6520228335954004,0.20776325174788696,7,0,1
exteroceptive,0.01,True,asynchronous,0.49049369138104276,0.06253791720859814,7,0,1
exteroceptive,0.01,True,synchronous,0.5329466476959827,0.30341505495302523,7,0,1
exteroceptive,0.01,False,asynchronous,0.4473853539750371,0.37205109789482144,7,0,1
exteroceptive,0.01,True,asynchronous,0.5151631771300413,0.1103615673299098,7,0,1
exteroceptive,0.01,False,asynchronous,0.6421059664589399,0.06545802860236934,7,0,1
exteroceptive,0.01,False,asynchronous,0.46380081529084966,0.04190759179357609,7,0,1
exteroceptive,0.01,True,asynchronous,0.4606041312974142,0.2146332998952399,7,0,1
exteroceptive,0.01,True,asynchronous,0.47820159723825095,0.18476045276393288,7,0,1
exteroceptive,0.01,False,asynchronous,0.41845583031626454,0.17934256015072886,7,0,1
exteroceptive,0.01,False,asynchronous,0.5531048759050189,0.11263112730111094,7,0,1
exteroceptive,0.01,True,asynchronous,0.5954271429856397,0.25505589076641927,7,0,1
exteroceptive,0.01,True,synchronous,0.3914318046556438,0.23327933526053324,7,0,1
exteroceptive,0.01,False,asynchronous,0.42349991899942696,0.23528748295544316,7,0,1
exteroceptive,0.01,True,asynchronous,0.5823455885691858,0.08264470878982576,7,0,1
exteroceptive,0.01,True,synchronous,0.35898730130260376,0.10822777314341664,7,0,1
exteroceptive,0.01,False,asynchronous,0.5382094204769917,0.0734169633444617,7,0,1
exteroceptive,0.01,True,asynchronous,0.5838137289738634,0.12303691309131443,7,0,1
exteroceptive,0.01,True,asynchronous,0.6713140466045561,0.2902244445264875,7,0,1
exteroceptive,0.01,False,asynchronous,0.46737490043079877,0.0,7,0,1
exteroceptive,0.01,False,asynchronous,0.466193120548366,0.0010459872509127333,7,0,1
exteroceptive,0.01,True,asynchronous,0.5370633527393737,0.1738183545727606,7,0,1
exteroceptive,0.01,False,asynchronous,0.645539132911813,0.21382564674992305,7,0,1
exteroceptive,0.01,False,asynchronous,0.5369102162627186,0.09719920461718073,7,0,1
exteroceptive,0.01,True,asynchronous,0.48313804333892957,0.2734592261815217,7,0,1
exteroceptive,0.01,True,asynchronous,0.48649597356948593,0.2561687370683649,7,0,1
exteroceptive,0.01,True,asynchronous,0.6479138014958555,0.06364181254515922,7,0,1
exteroceptive,0.01,True,asynchronous,0.4676212276685644,0.2770114758018331,7,0,1
exteroceptive,0.01,False,asynchronous,0.5707037157272947,0.0,7,0,1
exteroceptive,0.01,True,asynchronous,0.48805434646767887,0.08484436270974294,7,0,1
exteroceptive,0.01,True,synchronous,0.44049220346590157,0.1041221312859355,7,0,1
exteroceptive,0.01,True,asynchronous,0.6355740606827877,0.09961053821451006,7,0,1
exteroceptive,0.01,True,asynchronous,0.5014005804205233,0.2737178558550705,7,0,1
exteroceptive,0.01,True,asynchronous,0.41477540721673506,0.11473818629400576,7,0,1
exteroceptive,0.01,False,asynchronous,0.4936390587368264,0.23726284470353037,7,0,1
exteroceptive,0.01,True,asynchronous,0.5061151714848281,0.13931472687876198,7,0,1
exteroceptive,0.01,False,asynchronous,0.6547096792718285,0.27408519744961096,7,0,1
exteroceptive,0.01,True,asynchronous,0.3678059158123833,0.0650251928182127,7,0,1
exteroceptive,0.01,True,asynchronous,0.4482942628230108,0.0842099342996838,7,0,1
exteroceptive,0.01,True,asynchronous,0.7482524952687514,0.2792339123937353,8,0,1
exteroceptive,0.01,False,asynchronous,0.5653933504772328,0.06285166491440237,8,0,1
exteroceptive,0.01,False,synchronous,0.4708741724359819,0.33485709790716955,8,0,1
exteroceptive,0.01,True,asynchronous,0.6208778174338374,0.11319514019056212,8,0,1
exteroceptive,0.01,True,asynchronous,0.5124872203898593,0.06215034592242444,8,0,1
exteroceptive,0.01,True,asynchronous,0.5136067160937775,0.24338647573639616,8,0,1
exteroceptive,0.01,True,asynchronous,0.6911898494720986,0.14433492247051233,8,0,1
exteroceptive,0.01,True,asynchronous,0.43234065068069516,0.19902388681970168,8,0,1
exteroceptive,0.01,True,asynchronous,0.5932005688105673,0.20003589738152233,8,0,1
exteroceptive,0.01,False,synchronous,0.4610096622561206,0.17807042927988617,8,0,1
exteroceptive,0.01,False,asynchronous,0.4090118213121854,0.12127847845692966,8,0,1
exteroceptive,0.01,True,asynchronous,0.3646197220717301,0.1868844000811302,8,0,1
exteroceptive,0.01,False,asynchronous,0.37950290996665126,0.1278680084937992,8,0,1
exteroceptive,0.01,True,asynchronous,0.5402189839023828,0.35106103697921504,8,0,1
exteroceptive,0.01,False,asynchronous,0.4923826386882924,0.16193871603974858,8,0,1
exteroceptive,0.01,True,synchronous,0.262015198690101,0.3048029747008705,8,0,1
exteroceptive,0.01,True,synchronous,0.40987445576977716,0.243030061825713,8,0,1
exteroceptive,0.01,True,asynchronous,0.5515927924103715,0.12326162223790495,8,0,1
exteroceptive,0.01,False,asynchronous,0.3807020383047301,0.13407685812214012,8,0,1
exteroceptive,0.01,False,asynchronous,0.5345558327845455,0.12581594774594168,8,0,1
exteroceptive,0.01,True,synchronous,0.3789062450981878,0.3111822640347105,8,0,1
exteroceptive,0.01,False,asynchronous,0.4524607555923401,0.27372013863417066,8,0,1
exteroceptive,0.01,True,asynchronous,0.46551831782420966,0.06030408944927193,8,0,1
exteroceptive,0.01,False,asynchronous,0.6035128680416151,0.48805237616729513,8,0,1
exteroceptive,0.01,True,asynchronous,0.5376531091899801,0.1886844450335584,8,0,1
exteroceptive,0.01,True,asynchronous,0.6008577081797385,0.1884774969988253,8,0,1
exteroceptive,0.01,False,synchronous,0.3891570771426232,0.18353503174954816,8,0,1
exteroceptive,0.01,True,asynchronous,0.30798909936358104,0.2545606982737803,8,0,1
exteroceptive,0.01,True,asynchronous,0.4115505388958287,0.011742265819910391,8,0,1
exteroceptive,0.01,True,asynchronous,0.6014606465922328,0.16572597875626396,8,0,1
exteroceptive,0.01,False,asynchronous,0.4587098510439371,0.029344403788268664,8,0,1
exteroceptive,0.01,False,asynchronous,0.3845357619421577,0.21120109642295304,8,0,1
exteroceptive,0.01,False,asynchronous,0.6073586431364659,0.2441483602680658,8,0,1
exteroceptive,0.01,True,synchronous,0.5770210458883549,0.08739011606943503,8,0,1
exteroceptive,0.01,True,synchronous,0.4685252968338285,0.2403688099744023,8,0,1
exteroceptive,0.01,False,asynchronous,0.6288648332059187,0.2145583115710315,8,0,1
exteroceptive,0.01,True,asynchronous,0.5100617913070357,0.02400150824878039,8,0,1
exteroceptive,0.01,True,asynchronous,0.49604657711983824,0.07475057323102823,8,0,1
exteroceptive,0.01,False,asynchronous,0.41393476872079227,0.1563776822699865,8,0,1
exteroceptive,0.01,True,asynchronous,0.6042806174542724,0.20394170386150914,8,0,1
exteroceptive,0.01,True,asynchronous,0.5220553857728121,0.3060041237534528,8,0,1
exteroceptive,0.01,True,asynchronous,0.27013531206152414,0.36170970905872313,8,0,1
exteroceptive,0.01,False,asynchronous,0.4284410391706224,0.2345846138987998,8,0,1
exteroceptive,0.01,False,asynchronous,0.4345674518230469,0.22789553859920486,8,0,1
exteroceptive,0.01,False,asynchronous,0.5206301859901552,0.16650404798614515,8,0,1
exteroceptive,0.01,False,asynchronous,0.5085718498699031,0.18656821373993088,8,0,1
exteroceptive,0.01,False,asynchronous,0.5352215486766282,0.11992082137956145,8,0,1
exteroceptive,0.01,True,asynchronous,0.4567451183051674,0.17010279281711088,8,0,1
exteroceptive,0.01,True,asynchronous,0.3531603967259491,0.09715991689470847,8,0,1
exteroceptive,0.01,False,asynchronous,0.5296757739195914,0.14239172220455054,8,0,1
interoceptive,0.01,False,asynchronous,0.354491167644651,0.0,8,0,1
interoceptive,0.01,False,synchronous,0.4947077848748595,0.23387413636420978,8,0,1
interoceptive,0.01,True,asynchronous,0.4780385995058786,0.012750222065507112,8,0,1
interoceptive,0.01,True,asynchronous,0.6979162303575942,0.04384430289099499,8,0,1
interoceptive,0.01,False,asynchronous,0.5052278906949333,0.10933752655719325,8,0,1
interoceptive,0.01,False,asynchronous,0.4977111555897457,0.1341302847300145,8,0,1
interoceptive,0.01,False,asynchronous,0.32032997865972856,0.08488262444522615,8,0,1
interoceptive,0.01,True,asynchronous,0.46342584421272076,0.08364674717863928,8,0,1
interoceptive,0.01,True,asynchronous,0.5983629813563165,0.13247021722156876,8,0,1
interoceptive,0.01,True,asynchronous,0.49716561144788163,0.0,8,0,1
interoceptive,0.01,True,asynchronous,0.43157123986469126,0.284302844538346,8,0,1
interoceptive,0.01,True,asynchronous,0.4641751366775087,0.05982467098747909,8,0,1
interoceptive,0.01,False,asynchronous,0.4128628547291775,0.029352207127996445,8,0,1
interoceptive,0.01,True,asynchronous,0.5901153283469088,0.0,8,0,1
interoceptive,0.01,True,asynchronous,0.41382011132661456,0.15419811692962068,8,0,1
interoceptive,0.01,False,asynchronous,0.4702839223256223,0.0,8,0,1
interoceptive,0.01,True,asynchronous,0.36461543962892323,0.05222621221441645,8,0,1
interoceptive,0.01,True,asynchronous,0.4613271725397797,0.09281113828675966,8,0,1
interoceptive,0.01,True,asynchronous,0.577942097529764,0.14545566363826423,8,0,1
interoceptive,0.01,False,asynchronous,0.4765872472438417,0.1744370382555101,8,0,1
interoceptive,0.01,True,asynchronous,0.5770734786390863,0.19557198990843622,8,0,1
interoceptive,0.01,False,asynchronous,0.34638783410568047,0.32218799227188166,8,0,1
interoceptive,0.01,False,synchronous,0.4565916537920056,0.0755581786080194,8,0,1
interoceptive,0.01,False,asynchronous,0.4806229958310347,0.12301140317278887,8,0,1
interoceptive,0.01,False,asynchronous,0.5483263738384749,0.27650219314596836,8,0,1
interoceptive,0.01,False,asynchronous,0.6678543658891364,0.12812223137563422,8,0,1
interoceptive,0.01,False,asynchronous,0.48359850577360963,0.1261969081551675,8,0,1
interoceptive,0.01,True,asynchronous,0.4999414855962087,0.06911813646750391,8,0,1
interoceptive,0.01,True,asynchronous,0.45313334583732595,0.0,8,0,1
interoceptive,0.01,True,asynchronous,0.5366912071575393,0.10012160539845566,8,0,1
interoceptive,0.01,True,asynchronous,0.3533928834060807,0.11738696292488371,8,0,1
interoceptive,0.01,False,asynchronous,0.4233693530160272,0.020820290742007218,8,0,1
interoceptive,0.01,True,asynchronous,0.5194956675394775,0.21085485381476798,8,0,1
interoceptive,0.01,False,asynchronous,0.3452345081946307,0.015870664848486996,8,0,1
interoceptive,0.01,True,asynchronous,0.49503911436551307,0.09103538902352414,8,0,1
interoceptive,0.01,True,asynchronous,0.5608016695327008,0.21480728755666967,8,0,1
interoceptive,0.01,True,asynchronous,0.5891456976823388,0.0,8,0,1
interoceptive,0.01,True,asynchronous,0.4820719995329508,0.14208365782167648,8,0,1
interoceptive,0.01,True,asynchronous,0.3362982487355747,0.1017022097840162,8,0,1
interoceptive,0.01,True,asynchronous,0.4977204169512257,0.0,8,0,1
interoceptive,0.01,False,asynchronous,0.5622741495187101,0.1207722536954696,8,0,1
interoceptive,0.01,True,asynchronous,0.6584412974515833,0.0,8,0,1
interoceptive,0.01,True,asynchronous,0.3580355299068186,0.004835132908763556,8,0,1
interoceptive,0.01,True,asynchronous,0.3805085289527236,0.08327482873300868,8,0,1
interoceptive,0.01,False,asynchronous,0.45307538849989354,0.11758926805569478,8,0,1
interoceptive,0.01,True,asynchronous,0.5541016176115893,0.03711154383874866,8,0,1
interoceptive,0.01,False,asynchronous,0.45165539951687533,0.0,8,0,1
interoceptive,0.01,False,asynchronous,0.4297493116719572,0.0,8,0,1
interoceptive,0.01,False,asynchronous,0.42426267592786415,0.03653389274038354,8,0,1
interoceptive,0.01,True,asynchronous,0.5954791742799888,0.0,8,0,1
control,0.01,True,asynchronous,0.507937547617675,0.12046642451796669,8,0,1
control,0.01,False,asynchronous,0.38708970968569145,0.26231349206946003,8,0,1
control,0.01,False,asynchronous,0.4502594593331588,0.3800733716524528,8,0,1
control,0.01,False,asynchronous,0.5380536587589323,0.05098215724442884,8,0,1
control,0.01,True,asynchronous,0.5571289711874662,0.21883637655430763,8,0,1
control,0.01,False,synchronous,0.5079339087988005,0.333867286478404,8,0,1
control,0.01,True,asynchronous,0.3838897632432131,0.2696079314347054,8,0,1
control,0.01,True,asynchronous,0.5370650788693018,0.23978728547567152,8,0,1
control,0.01,True,asynchronous,0.5589909404986503,0.13985983413415717,8,0,1
control,0.01,False,asynchronous,0.5169711378036621,0.0,8,0,1
control,0.01,False,asynchronous,0.3023525124561749,0.29270354342146565,8,0,1
control,0.01,True,synchronous,0.463909921342344,0.4576723754119515,8,0,1
control,0.01,True,synchronous,0.5718462065405874,0.33682069940986725,8,0,1
control,0.01,True,asynchronous,0.4737910008801406,0.37652161012026397,8,0,1
control,0.01,False,synchronous,0.759672652688528,0.20114297215000052,8,0,1
control,0.01,True,asynchronous,0.44629081760255324,0.37510523024113185,8,0,1
control,0.01,False,asynchronous,0.7199890814298121,0.08512447252918809,8,0,1
control,0.01,True,asynchronous,0.529464700749459,0.24437324505030328,8,0,1
control,0.01,True,asynchronous,0.4526972140499522,0.23743093262333126,8,0,1
control,0.01,False,asynchronous,0.44928967442843243,0.256314732658815,8,0,1
control,0.01,False,asynchronous,0.5165768183054901,0.32622142923115693,8,0,1
control,0.01,True,synchronous,0.36490550654860887,0.15655700050439994,8,0,1
control,0.01,False,asynchronous,0.6186055323489107,0.11597026898691638,8,0,1
control,0.01,True,synchronous,0.508259622315142,0.256235099751395,8,0,1
control,0.01,True,synchronous,0.3635954913751151,0.19915129094523398,8,0,1
control,0.01,True,synchronous,0.5236283686117816,0.2686260385431738,8,0,1
control,0.01,False,asynchronous,0.5561519381106852,0.26772326033910065,8,0,1
control,0.01,True,asynchronous,0.4595550080248181,0.2293176496876612,8,0,1
control,0.01,False,synchronous,0.6985968080058936,0.2329924704473249,8,0,1
control,0.01,True,asynchronous,0.7136044507374047,0.25751624957149644,8,0,1
control,0.01,False,asynchronous,0.4566809561981774,0.3131906032348736,8,0,1
control,0.01,False,asynchronous,0.4314351240349305,0.2008196130203622,8,0,1
control,0.01,False,asynchronous,0.47287287214989715,0.2036067482782905,8,0,1
control,0.01,False,synchronous,0.6443542780655998,0.3295776817954475,8,0,1
control,0.01,False,asynchronous,0.39196387559769363,0.0,8,0,1
control,0.01,False,asynchronous,0.5662170720478741,0.1877247088487194,8,0,1
control,0.01,False,synchronous,0.5665113560465147,0.44096373175210934,8,0,1
control,0.01,False,asynchronous,0.3510794203063129,0.26384333116243297,8,0,1
control,0.01,True,asynchronous,0.5159667423421955,0.08904436869962104,8,0,1
control,0.01,True,asynchronous,0.2418390701456114,0.4083996846360301,8,0,1
control,0.01,True,asynchronous,0.49173950044024545,0.31143179146835026,8,0,1
control,0.01,False,asynchronous,0.52697270133598,0.22322335054730127,8,0,1
control,0.01,False,asynchronous,0.38083465585316545,0.2528299671933274,8,0,1
control,0.01,True,asynchronous,0.5881054869493598,0.2625461718561225,8,0,1
control,0.01,True,asynchronous,0.708033972548946,0.19063118332045276,8,0,1
control,0.01,False,asynchronous,0.520113711611118,0.3188273261839335,8,0,1
control,0.01,False,asynchronous,0.6521620168561891,0.2251047685507337,8,0,1
control,0.01,True,synchronous,0.46804649100863555,0.2150332500718143,8,0,1
control,0.01,False,asynchronous,0.5379592094772916,0.2640889230372915,8,0,1
control,0.01,True,asynchronous,0.3850689356814966,0.06691858302943515,8,0,1
exteroceptive,0.01,True,asynchronous,0.4882391027685701,0.41188880429716757,9,0,1
exteroceptive,0.01,True,asynchronous,0.6447091450955502,0.15009173573427848,9,0,1
exteroceptive,0.01,False,asynchronous,0.44078381532837385,0.2230859944900877,9,0,1
exteroceptive,0.01,False,asynchronous,0.33876959703407217,0.19724453304810674,9,0,1
exteroceptive,0.01,False,asynchronous,0.4298771130665904,0.24903540234482152,9,0,1
exteroceptive,0.01,True,asynchronous,0.6001881772030797,0.07134844164860017,9,0,1
exteroceptive,0.01,True,synchronous,0.539847717779151,0.1543945362006404,9,0,1
exteroceptive,0.01,False,asynchronous,0.4426967743777605,0.21583233639282914,9,0,1
exteroceptive,0.01,False,asynchronous,0.43457423724335564,0.22909455529130368,9,0,1
exteroceptive,0.01,True,synchronous,0.5289305342748124,0.1611234142883321,9,0,1
exteroceptive,0.01,True,asynchronous,0.38215219302641107,0.18441154231703216,9,0,1
exteroceptive,0.01,False,asynchronous,0.5999673318111541,0.18052379716872258,9,0,1
exteroceptive,0.01,True,synchronous,0.225239157814605,0.10389771639937218,9,0,1
exteroceptive,0.01,True,synchronous,0.300678778225638,0.23381940604311502,9,0,1
exteroceptive,0.01,True,asynchronous,0.3701694376628993,0.2299341893609339,9,0,1
exteroceptive,0.01,False,synchronous,0.5739361244891551,0.05631514405622831,9,0,1
exteroceptive,0.01,False,asynchronous,0.5282626261508492,0.03857297202604343,9,0,1
exteroceptive,0.01,True,asynchronous,0.4297646113178112,0.2431634589761391,9,0,1
exteroceptive,0.01,True,synchronous,0.628219914636285,0.10680946713801523,9,0,1
exteroceptive,0.01,False,synchronous,0.6055919341028088,0.06193613032271893,9,0,1
exteroceptive,0.01,False,asynchronous,0.43582812331787185,0.2554562282488524,9,0,1
exteroceptive,0.01,True,asynchronous,0.5055615602523734,0.1763110960699894,9,0,1
exteroceptive,0.01,True,asynchronous,0.5350208173132379,0.08926877338485276,9,0,1
exteroceptive,0.01,True,asynchronous,0.5947584640984556,0.14379596219527763,9,0,1
exteroceptive,0.01,False,asynchronous,0.6996600831788214,0.2677200757187376,9,0,1
exteroceptive,0.01,False,asynchronous,0.603727138837187,0.07026075486768975,9,0,1
exteroceptive,0.01,True,asynchronous,0.4509506644827086,0.0035773177618642626,9,0,1
exteroceptive,0.01,False,synchronous,0.5487657390250712,0.2009845649313476,9,0,1
exteroceptive,0.01,False,asynchronous,0.44272160817170597,0.2693812410323159,9,0,1
exteroceptive,0.01,True,asynchronous,0.3525794331015823,0.1075001581884413,9,0,1
exteroceptive,0.01,False,asynchronous,0.6206997429060959,0.1150389147796306,9,0,1
exteroceptive,0.01,True,asynchronous,0.32203184428611936,0.17175579250453837,9,0,1
exteroceptive,0.01,False,asynchronous,0.4576599055779753,0.15919049839858473,9,0,1
exteroceptive,0.01,True,synchronous,0.5673445062156304,0.1437477429751311,9,0,1
exteroceptive,0.01,False,asynchronous,0.4724588800608755,0.21197632105227965,9,0,1
exteroceptive,0.01,False,asynchronous,0.42902964089853884,0.24128405018165078,9,0,1
exteroceptive,0.01,True,asynchronous,0.5131151864354312,0.15464012207600983,9,0,1
exteroceptive,0.01,True,synchronous,0.6069215605207716,0.10289685389002001,9,0,1
exteroceptive,0.01,True,asynchronous,0.5953283451078345,0.26226006778416233,9,0,1
exteroceptive,0.01,False,asynchronous,0.5744880922636468,0.03999343926756915,9,0,1
exteroceptive,0.01,False,asynchronous,0.37887333465991907,0.32934725026453116,9,0,1
exteroceptive,0.01,True,asynchronous,0.4232164698965435,0.34049538542549185,9,0,1
exteroceptive,0.01,False,asynchronous,0.45491591551754684,0.33454150192169013,9,0,1
exteroceptive,0.01,False,synchronous,0.526265365376701,0.34905445212115804,9,0,1
exteroceptive,0.01,False,asynchronous,0.47505817648737325,0.20021094642142281,9,0,1
exteroceptive,0.01,False,asynchronous,0.5692960205779857,0.06163533860743042,9,0,1
exteroceptive,0.01,True,asynchronous,0.43406879711723734,0.16066447961409994,9,0,1
