trial_number,trial_onset,reaction_time,accuracy,condition,subject_id
1,2.1919404111762204,258.5669676099586,1,medium,subject_002
2,5.447256445874963,388.4097189301553,1,easy,subject_002
3,7.880287505677874,765.7887488783928,0,easy,subject_002
4,9.822653026911237,296.4290227483279,1,medium,subject_002
5,10.472101070410837,320.84090750063444,1,easy,subject_002
6,12.658367069974215,312.02301216753983,0,hard,subject_002
7,17.900067845052625,302.1330391086298,1,medium,subject_002
8,17.9802424196501,233.78274743639,1,easy,subject_002
9,20.417443926220578,225.65583983901786,1,easy,subject_002
10,20.625384504293407,747.8983429080437,1,hard,subject_002
11,21.314750762308915,254.24022981249342,1,medium,subject_002
12,28.78206566722424,381.4569462657409,1,easy,subject_002
13,29.526736176189026,298.198364128496,1,hard,subject_002
14,30.938204152098514,363.7608517900745,0,easy,subject_002
15,32.93263827502337,153.5340397047869,1,easy,subject_002
16,33.007858102450726,321.8543396297239,1,medium,subject_002
17,37.238639453456855,240.2733496879699,1,medium,subject_002
18,37.65672214001573,641.8825010123239,1,hard,subject_002
19,38.50036099750336,202.57962292939894,1,medium,subject_002
20,39.879180176460345,236.1872174695904,0,easy,subject_002
21,46.081762758581746,725.0787079165602,1,easy,subject_002
22,46.534092475690855,267.5145220469936,0,medium,subject_002
23,47.033923953146115,411.31093189527667,1,easy,subject_002
24,49.05977634305411,322.2294105578583,1,medium,subject_002
25,50.199013161563485,285.79547821881187,1,hard,subject_002
26,52.08336474834975,211.54897810198526,1,hard,subject_002
27,52.47665861647022,222.18903319380928,1,hard,subject_002
28,53.04858963134781,271.4109328369565,1,medium,subject_002
29,53.78394410805501,264.94891956119403,1,medium,subject_002
30,54.95934110782439,666.4295225933938,0,hard,subject_002
31,56.87443453853499,329.5293384187318,1,medium,subject_002
32,57.55725689772448,318.3775005746689,1,hard,subject_002
33,60.77542372805996,242.92677716390878,1,medium,subject_002
34,61.590668553529646,357.81951726155614,1,medium,subject_002
35,63.64925480586751,183.0287364868532,1,medium,subject_002
36,64.79193375396964,344.56623837938207,1,hard,subject_002
37,66.0266483967182,361.95362805680446,1,hard,subject_002
38,68.94589414458987,332.38841681582426,1,medium,subject_002
39,70.1501205795957,298.4417932922611,1,medium,subject_002
40,74.79909971241376,298.48297303516006,1,easy,subject_002
41,74.86341617733721,188.1285769368708,1,medium,subject_002
42,74.88807562783275,281.44816645162365,1,easy,subject_002
43,78.65561849546596,247.17367782695,1,hard,subject_002
44,82.65371457603214,309.28315529596654,1,medium,subject_002
45,82.80690374480034,394.6075597316497,1,hard,subject_002
46,83.3576442312376,376.1265115226653,1,hard,subject_002
47,87.4417711478385,284.66558272325375,1,hard,subject_002
48,88.72951786806121,260.3440281183557,1,medium,subject_002
49,91.21047694982951,273.10381338761164,0,easy,subject_002
50,93.5433061925291,306.8920550809691,1,easy,subject_002
51,94.4262275233113,231.2566425610718,0,easy,subject_002
52,99.48545331069491,249.03328668242798,1,hard,subject_002
53,99.49657472615098,264.87501729051206,1,easy,subject_002
54,103.95118211205059,313.5889099775265,1,medium,subject_002
55,105.11739427925974,255.40900416266294,1,medium,subject_002
56,107.865229563839,891.3821051332069,1,hard,subject_002
57,109.22111495515519,226.7275915216153,1,medium,subject_002
58,113.02301967965388,410.2401108759401,1,hard,subject_002
59,114.8027395335215,203.01913007449932,1,hard,subject_002
60,116.18365920580486,388.12698335360005,1,hard,subject_002
61,116.9660558130712,242.96914785809668,1,easy,subject_002
62,117.03910982985313,282.3247940075096,1,medium,subject_002
63,117.25114875921734,242.2008642939353,1,easy,subject_002
64,118.506813543139,363.5163609211529,1,hard,subject_002
65,118.715554257082,842.1834814249453,1,hard,subject_002
66,122.04653638805353,339.91801181779596,1,hard,subject_002
67,122.32382573446458,308.3309041322255,1,medium,subject_002
68,124.85841669232681,293.2164450594392,1,easy,subject_002
69,125.78824670028892,251.93653933064937,1,medium,subject_002
70,127.38459612354862,255.9236390486962,1,medium,subject_002
71,128.2201506141197,288.6700759076914,1,easy,subject_002
72,129.58586469857408,294.4813549868205,1,medium,subject_002
73,129.7169195092017,375.33262917015213,1,medium,subject_002
74,129.94041981256188,528.7425926930327,1,hard,subject_002
75,130.8527587474447,284.2576112912514,1,easy,subject_002
76,132.05134441584792,315.3464716351861,1,medium,subject_002
77,132.25067168552687,291.54009901901594,1,easy,subject_002
78,132.8853411759867,353.17527491457855,1,medium,subject_002
79,134.7354808582833,327.5049606148173,1,hard,subject_002
80,138.0955967006628,382.63719149555294,1,easy,subject_002
81,139.36823155115258,700.0703913594839,1,medium,subject_002
82,145.89222746419335,348.8033612929556,0,easy,subject_002
83,146.11443620130078,169.93626586374845,1,medium,subject_002
84,149.1663987993921,241.83359243017085,0,medium,subject_002
85,152.9794483185661,313.3244364743224,0,medium,subject_002
86,154.8513677897732,218.40696601088237,1,hard,subject_002
87,155.65600097480524,269.3538510424298,1,easy,subject_002
88,157.17940062810413,260.6334543866439,1,easy,subject_002
89,159.00210689281107,342.78037604553487,1,easy,subject_002
90,159.2622644728281,624.3270642615728,1,easy,subject_002
91,159.46195793238292,268.14303650873694,1,easy,subject_002
92,160.47116454486118,383.66126443727313,1,medium,subject_002
93,162.04493817737804,332.2979744124566,1,medium,subject_002
94,162.6893002324002,206.21986885922325,1,hard,subject_002
95,169.50363465527136,289.1176080845679,1,medium,subject_002
96,170.638756023487,338.3356521641154,1,hard,subject_002
97,176.3297452019585,301.2689035205286,1,hard,subject_002
98,179.4997568690706,312.93695199456084,1,easy,subject_002
99,184.55004356004898,234.62366092209973,1,hard,subject_002
100,186.47140465777628,310.6246948403306,1,hard,subject_002
